timestamp_ns,wx,wy,wz,ax,ay,az,gx,gy,gz,time_ms_loc
1749115619118057124,-0.375,0.1875,-1.1875,9.380000114440918,-0.270000010728836,-2.890000104904175,9.369999885559082,-0.2399999946355819,-2.8499999046325684,41219118
1749115619143791422,-0.3125,0.4375,-1.4375,9.359999656677246,-0.2599999904632568,-2.869999885559082,9.369999885559082,-0.2399999946355819,-2.8499999046325684,41219143
1749115619150924884,-0.5625,0.5,-1.6875,9.380000114440918,-0.2300000041723251,-2.8499999046325684,9.369999885559082,-0.2300000041723251,-2.8499999046325684,41219150
1749115619172923380,-0.5,0.5625,-1.625,9.380000114440918,-0.209999993443489,-2.8499999046325684,9.380000114440918,-0.2300000041723251,-2.8499999046325684,41219172
1749115619198213759,-0.4375,0.5,-1.9375,9.369999885559082,-0.1800000071525573,-2.859999895095825,9.380000114440918,-0.2199999988079071,-2.8499999046325684,41219198
1749115619213136251,-0.125,0.4375,-1.875,9.34000015258789,-0.2199999988079071,-2.8499999046325684,9.380000114440918,-0.209999993443489,-2.8499999046325684,41219213
1749115619231893316,-0.3125,0.3125,-1.75,9.369999885559082,-0.2300000041723251,-2.8299999237060547,9.380000114440918,-0.209999993443489,-2.8499999046325684,41219231
1749115619259003101,0.125,0.3125,-1.625,9.390000343322754,-0.2000000029802322,-2.859999895095825,9.380000114440918,-0.2000000029802322,-2.8499999046325684,41219259
1749115619275466357,0.375,0.375,-1.6875,9.390000343322754,-0.209999993443489,-2.819999933242798,9.380000114440918,-0.2000000029802322,-2.8499999046325684,41219275
1749115619293005825,0.5,0.25,-1.8125,9.359999656677246,-0.2300000041723251,-2.8399999141693115,9.380000114440918,-0.1899999976158142,-2.8499999046325684,41219293
1749115619310975625,0.4375,0.375,-1.875,9.359999656677246,-0.2000000029802322,-2.8299999237060547,9.380000114440918,-0.1899999976158142,-2.8499999046325684,41219310
1749115619330926178,0.9375,0.1875,-1.875,9.380000114440918,-0.1400000005960464,-2.8299999237060547,9.380000114440918,-0.1800000071525573,-2.8499999046325684,41219330
1749115619354181950,0.625,0.4375,-1.6875,9.359999656677246,-0.1599999964237213,-2.869999885559082,9.380000114440918,-0.1800000071525573,-2.8499999046325684,41219354
1749115619377936940,0.5625,0.25,-1.3125,9.390000343322754,-0.1400000005960464,-2.8399999141693115,9.380000114440918,-0.1700000017881393,-2.8499999046325684,41219377
1749115619397288862,0.6875,0.1875,-1.0625,9.390000343322754,-0.1800000071525573,-2.819999933242798,9.380000114440918,-0.1700000017881393,-2.8499999046325684,41219397
1749115619411815175,0.75,-0.0625,-0.4375,9.369999885559082,-0.1299999952316284,-2.819999933242798,9.380000114440918,-0.1700000017881393,-2.8499999046325684,41219411
1749115619437209032,0.5625,-0.0625,-0.25,9.399999618530272,-0.1299999952316284,-2.819999933242798,9.380000114440918,-0.1700000017881393,-2.8499999046325684,41219437
1749115619452122278,0.4375,0.0625,0.3125,9.390000343322754,-0.1299999952316284,-2.859999895095825,9.380000114440918,-0.1700000017881393,-2.8499999046325684,41219452
1749115619472265101,0.5,-0.125,0.625,9.390000343322754,-0.1400000005960464,-2.8499999046325684,9.380000114440918,-0.1700000017881393,-2.8499999046325684,41219472
1749115619492140145,0.5625,0.0,0.875,9.399999618530272,-0.1800000071525573,-2.819999933242798,9.380000114440918,-0.1700000017881393,-2.8499999046325684,41219492
1749115619511987500,0.5625,-0.1875,1.125,9.369999885559082,-0.1800000071525573,-2.819999933242798,9.380000114440918,-0.1800000071525573,-2.8499999046325684,41219511
1749115619536123531,0.6875,-0.25,1.25,9.369999885559082,-0.2000000029802322,-2.8299999237060547,9.380000114440918,-0.1800000071525573,-2.8499999046325684,41219536
1749115619562184615,0.8125,-0.3125,1.375,9.380000114440918,-0.209999993443489,-2.880000114440918,9.380000114440918,-0.1899999976158142,-2.8499999046325684,41219562
1749115619621308386,0.3125,-0.25,1.5,9.359999656677246,-0.2199999988079071,-2.8299999237060547,9.380000114440918,-0.1899999976158142,-2.8499999046325684,41219621
1749115619648239616,0.4375,-0.3125,1.5,9.359999656677246,-0.2399999946355819,-2.859999895095825,9.380000114440918,-0.1899999976158142,-2.8499999046325684,41219648
1749115619672998429,0.75,-0.3125,1.25,9.380000114440918,-0.209999993443489,-2.819999933242798,9.380000114440918,-0.2000000029802322,-2.8499999046325684,41219672
1749115619690082334,0.9375,-0.3125,1.125,9.390000343322754,-0.2199999988079071,-2.859999895095825,9.380000114440918,-0.2000000029802322,-2.8499999046325684,41219690
1749115619690235680,0.8125,-0.25,1.0625,9.350000381469728,-0.2300000041723251,-2.859999895095825,9.380000114440918,-0.209999993443489,-2.8499999046325684,41219690
1749115619691738333,0.8125,-0.4375,1.0625,9.369999885559082,-0.270000010728836,-2.859999895095825,9.380000114440918,-0.209999993443489,-2.8499999046325684,41219691
1749115619701066397,0.9375,-0.375,1.0625,9.380000114440918,-0.2599999904632568,-2.8399999141693115,9.380000114440918,-0.2199999988079071,-2.8399999141693115,41219701
1749115619716087317,1.0625,-0.375,0.875,9.380000114440918,-0.3199999928474426,-2.809999942779541,9.380000114440918,-0.2199999988079071,-2.8399999141693115,41219716
1749115619733136843,1.0,-0.3125,0.6875,9.359999656677246,-0.1299999952316284,-2.859999895095825,9.380000114440918,-0.2199999988079071,-2.8399999141693115,41219733
1749115619752128618,1.0,-0.125,0.5625,9.359999656677246,-0.2800000011920929,-2.900000095367432,9.380000114440918,-0.2300000041723251,-2.8399999141693115,41219752
1749115619772246070,0.8125,-0.375,0.625,9.40999984741211,-0.3100000023841858,-2.740000009536743,9.380000114440918,-0.2300000041723251,-2.8399999141693115,41219772
1749115619798006059,0.9375,-0.0625,0.25,9.359999656677246,-0.25,-2.8299999237060547,9.380000114440918,-0.2300000041723251,-2.8399999141693115,41219798
1749115619810806992,0.625,-0.3125,0.1875,9.369999885559082,-0.2800000011920929,-2.809999942779541,9.380000114440918,-0.2300000041723251,-2.8399999141693115,41219810
1749115619832885005,0.375,-0.0625,-0.125,9.390000343322754,-0.270000010728836,-2.819999933242798,9.380000114440918,-0.2300000041723251,-2.8399999141693115,41219832
1749115619857895664,0.25,0.0625,-0.125,9.380000114440918,-0.2800000011920929,-2.869999885559082,9.380000114440918,-0.2300000041723251,-2.8399999141693115,41219857
1749115619873039970,0.25,0.0625,-0.125,9.380000114440918,-0.209999993443489,-2.869999885559082,9.380000114440918,-0.2300000041723251,-2.8399999141693115,41219873
1749115619890938869,0.125,0.0,0.0,9.380000114440918,-0.209999993443489,-2.8399999141693115,9.380000114440918,-0.2300000041723251,-2.8399999141693115,41219890
1749115619916858533,0.0,0.1875,-0.0625,9.369999885559082,-0.25,-2.869999885559082,9.380000114440918,-0.2300000041723251,-2.8399999141693115,41219916
1749115619931146101,0.0625,0.1875,-0.0625,9.359999656677246,-0.270000010728836,-2.8499999046325684,9.380000114440918,-0.2300000041723251,-2.8399999141693115,41219931
1749115619956691500,0.1875,0.25,0.0625,9.359999656677246,-0.2599999904632568,-2.8299999237060547,9.380000114440918,-0.2300000041723251,-2.8399999141693115,41219956
1749115619973067386,0.0625,0.125,0.0,9.369999885559082,-0.2599999904632568,-2.8499999046325684,9.380000114440918,-0.2300000041723251,-2.8399999141693115,41219973
1749115619998295068,0.1875,0.0,-0.1875,9.380000114440918,-0.2300000041723251,-2.8399999141693115,9.380000114440918,-0.2300000041723251,-2.8399999141693115,41219998
1749115620011780904,0.25,0.0625,-0.125,9.369999885559082,-0.2599999904632568,-2.8299999237060547,9.380000114440918,-0.2300000041723251,-2.8399999141693115,41220011
1749115620032074452,0.0,0.0,-0.0625,9.369999885559082,-0.2599999904632568,-2.8499999046325684,9.380000114440918,-0.2300000041723251,-2.8399999141693115,41220032
1749115620057299849,-0.0625,0.0,-0.125,9.369999885559082,-0.2899999916553497,-2.859999895095825,9.380000114440918,-0.2300000041723251,-2.8399999141693115,41220057
1749115620073031099,-0.1875,-0.0625,-0.3125,9.390000343322754,-0.25,-2.8499999046325684,9.380000114440918,-0.2300000041723251,-2.8399999141693115,41220073
1749115620102054940,-0.125,-0.1875,-0.25,9.390000343322754,-0.2399999946355819,-2.869999885559082,9.380000114440918,-0.2300000041723251,-2.8399999141693115,41220102
1749115620116982646,-0.125,-0.125,-0.3125,9.359999656677246,-0.2199999988079071,-2.8399999141693115,9.380000114440918,-0.2300000041723251,-2.8399999141693115,41220116
1749115620131950527,0.0,-0.0625,-0.375,9.359999656677246,-0.209999993443489,-2.8299999237060547,9.380000114440918,-0.2300000041723251,-2.8399999141693115,41220131
1749115620158308516,0.0,-0.0625,-0.5,9.359999656677246,-0.2300000041723251,-2.8499999046325684,9.380000114440918,-0.2300000041723251,-2.8399999141693115,41220158
1749115620172997091,0.0,-0.125,-0.3125,9.350000381469728,-0.2399999946355819,-2.890000104904175,9.380000114440918,-0.2300000041723251,-2.8399999141693115,41220172
1749115620199107098,-0.1875,-0.1875,-0.4375,9.359999656677246,-0.2599999904632568,-2.880000114440918,9.380000114440918,-0.2300000041723251,-2.8399999141693115,41220199
1749115620214973722,-0.125,-0.1875,-0.4375,9.369999885559082,-0.2599999904632568,-2.869999885559082,9.380000114440918,-0.2300000041723251,-2.8399999141693115,41220214
1749115620230980567,-0.125,-0.1875,-0.5625,9.380000114440918,-0.25,-2.859999895095825,9.380000114440918,-0.2300000041723251,-2.8399999141693115,41220230
1749115620254121265,-0.25,-0.25,-0.625,9.369999885559082,-0.2300000041723251,-2.859999895095825,9.380000114440918,-0.2300000041723251,-2.8399999141693115,41220254
1749115620274189075,-0.4375,-0.25,-0.625,9.350000381469728,-0.270000010728836,-2.880000114440918,9.380000114440918,-0.2300000041723251,-2.8399999141693115,41220274
1749115620300077196,-0.5,-0.125,-0.875,9.359999656677246,-0.2399999946355819,-2.8499999046325684,9.380000114440918,-0.2199999988079071,-2.8399999141693115,41220300
1749115620311804957,-0.375,-0.125,-1.0625,9.369999885559082,-0.2300000041723251,-2.869999885559082,9.380000114440918,-0.2199999988079071,-2.8399999141693115,41220311
1749115620334250393,-0.375,-0.0625,-1.0625,9.359999656677246,-0.2300000041723251,-2.809999942779541,9.380000114440918,-0.2199999988079071,-2.8399999141693115,41220334
1749115620357807500,-0.4375,-0.1875,-1.25,9.359999656677246,-0.25,-2.869999885559082,9.380000114440918,-0.209999993443489,-2.8399999141693115,41220357
1749115620370959168,-0.3125,-0.1875,-1.3125,9.390000343322754,-0.25,-2.859999895095825,9.380000114440918,-0.209999993443489,-2.8399999141693115,41220370
1749115620398070164,-0.1875,-0.1875,-1.5625,9.380000114440918,-0.2199999988079071,-2.880000114440918,9.380000114440918,-0.2000000029802322,-2.8399999141693115,41220398
1749115620411916653,0.0,0.0625,-1.5,9.390000343322754,-0.2599999904632568,-2.859999895095825,9.380000114440918,-0.2000000029802322,-2.8399999141693115,41220411
1749115620438014133,-0.25,-0.3125,-1.4375,9.390000343322754,-0.1899999976158142,-2.9100000858306885,9.380000114440918,-0.1899999976158142,-2.8399999141693115,41220438
1749115620460831301,-0.25,0.1875,-1.625,9.40999984741211,-0.2899999916553497,-2.930000066757202,9.380000114440918,-0.1899999976158142,-2.8399999141693115,41220460
1749115620472128971,0.5625,1.5625,-1.875,9.359999656677246,-0.2599999904632568,-2.859999895095825,9.380000114440918,-0.1800000071525573,-2.8399999141693115,41220472
1749115620495025535,0.4375,1.3125,-2.1875,9.359999656677246,-0.1599999964237213,-2.799999952316284,9.380000114440918,-0.1800000071525573,-2.8399999141693115,41220495
1749115620520924561,0.625,0.9375,-2.3125,9.390000343322754,-0.1700000017881393,-2.7699999809265137,9.380000114440918,-0.1700000017881393,-2.8299999237060547,41220520
1749115620537037728,0.6875,0.875,-2.375,9.359999656677246,-0.2599999904632568,-2.9800000190734863,9.380000114440918,-0.1599999964237213,-2.8299999237060547,41220537
1749115620552188481,1.1875,1.8125,-3.125,9.31999969482422,-0.3300000131130218,-2.869999885559082,9.380000114440918,-0.1599999964237213,-2.8299999237060547,41220552
1749115620572139823,2.3125,2.3125,-3.8125,9.359999656677246,-0.3000000119209289,-2.8299999237060547,9.390000343322754,-0.1500000059604644,-2.819999933242798,41220572
1749115620590997025,4.0,1.8125,-4.6875,9.380000114440918,-0.2300000041723251,-2.759999990463257,9.390000343322754,-0.1299999952316284,-2.809999942779541,41220590
1749115620612567775,4.9375,1.5,-5.1875,9.380000114440918,-0.2800000011920929,-2.8299999237060547,9.390000343322754,-0.1199999973177909,-2.809999942779541,41220612
1749115620633093306,6.0,1.6875,-6.0625,9.350000381469728,-0.2899999916553497,-2.819999933242798,9.390000343322754,-0.1099999994039535,-2.799999952316284,41220633
1749115620653930434,6.5625,1.8125,-7.125,9.31999969482422,-0.3000000119209289,-2.819999933242798,9.390000343322754,-0.0900000035762786,-2.799999952316284,41220653
1749115620673243959,8.5625,0.875,-8.0,9.369999885559082,-0.1099999994039535,-2.680000066757202,9.390000343322754,-0.0799999982118606,-2.789999961853028,41220673
1749115620691061445,8.625,0.0625,-8.0625,9.359999656677246,0.0,-2.7100000381469727,9.390000343322754,-0.0599999986588954,-2.789999961853028,41220691
1749115620712927951,7.1875,-0.6875,-7.8125,9.34000015258789,0.0599999986588954,-2.7799999713897705,9.390000343322754,-0.0399999991059303,-2.789999961853028,41220712
1749115620736013037,5.8125,-1.3125,-6.875,9.34000015258789,0.0099999997764825,-2.6700000762939453,9.390000343322754,-0.0199999995529651,-2.799999952316284,41220736
1749115620754921718,5.0625,-2.4375,-6.25,9.34000015258789,0.1000000014901161,-2.680000066757202,9.390000343322754,-0.0099999997764825,-2.799999952316284,41220754
1749115620772107006,4.3125,-3.3125,-5.3125,9.380000114440918,0.1700000017881393,-2.7699999809265137,9.390000343322754,0.0,-2.809999942779541,41220772
1749115620796785543,3.25,-4.0,-3.625,9.390000343322754,0.2300000041723251,-2.700000047683716,9.380000114440918,0.0099999997764825,-2.819999933242798,41220796
1749115620821918783,2.3125,-4.25,-2.1875,9.390000343322754,0.0700000002980232,-2.8399999141693115,9.380000114440918,0.0099999997764825,-2.8399999141693115,41220821
1749115620834781811,4.0625,-4.625,-0.875,9.470000267028809,0.1199999973177909,-2.799999952316284,9.380000114440918,0.0099999997764825,-2.8499999046325684,41220834
1749115620864784113,4.0,-4.75,0.0625,9.479999542236328,-0.0399999991059303,-2.9200000762939453,9.369999885559082,0.0099999997764825,-2.869999885559082,41220864
1749115620890521416,5.625,-4.6875,0.1875,9.40999984741211,0.0900000035762786,-2.940000057220459,9.369999885559082,0.0,-2.880000114440918,41220890
1749115620913490979,4.5,-4.0,0.875,9.4399995803833,0.0099999997764825,-2.9800000190734863,9.359999656677246,0.0,-2.890000104904175,41220913
1749115620922818289,3.5625,-3.125,1.0625,9.40999984741211,-0.0900000035762786,-3.0,9.359999656677246,0.0,-2.9100000858306885,41220922
1749115620935102828,3.4375,-2.625,0.3125,9.4399995803833,-0.1400000005960464,-2.9600000381469727,9.359999656677246,0.0,-2.9100000858306885,41220935
1749115620952144221,3.75,-1.4375,-0.9375,9.359999656677246,-0.1599999964237213,-3.069999933242798,9.359999656677246,-0.0099999997764825,-2.9200000762939453,41220952
1749115620990210514,3.6875,-0.25,-2.1875,9.34000015258789,-0.1700000017881393,-3.039999961853028,9.350000381469728,-0.0099999997764825,-2.9200000762939453,41220990
1749115620995414365,3.5625,0.5625,-3.375,9.31999969482422,-0.2000000029802322,-2.950000047683716,9.350000381469728,0.0,-2.9200000762939453,41220995
1749115621015919816,4.8125,1.125,-4.25,9.359999656677246,0.0099999997764825,-2.9200000762939453,9.350000381469728,0.0,-2.9200000762939453,41221015
1749115621042128140,5.1875,1.125,-4.75,9.369999885559082,0.0199999995529651,-2.890000104904175,9.359999656677246,0.0,-2.9200000762939453,41221042
1749115621058068598,6.0,1.25,-5.0625,9.329999923706056,0.0299999993294477,-2.8499999046325684,9.359999656677246,0.0099999997764825,-2.9100000858306885,41221058
1749115621070994627,7.3125,1.3125,-4.625,9.390000343322754,0.050000000745058,-2.940000057220459,9.359999656677246,0.0199999995529651,-2.9100000858306885,41221070
1749115621095199609,7.8125,1.25,-4.0,9.40999984741211,0.1000000014901161,-2.970000028610229,9.359999656677246,0.0299999993294477,-2.9100000858306885,41221095
1749115621114185775,7.6875,1.6875,-3.125,9.390000343322754,0.1500000059604644,-2.890000104904175,9.359999656677246,0.0299999993294477,-2.900000095367432,41221114
1749115621135743714,7.6875,1.5625,-2.25,9.359999656677246,0.050000000745058,-2.880000114440918,9.359999656677246,0.0299999993294477,-2.900000095367432,41221135
1749115621159077581,7.875,1.5,-1.5,9.399999618530272,0.0700000002980232,-2.900000095367432,9.359999656677246,0.0299999993294477,-2.890000104904175,41221159
1749115621176276279,7.4375,2.125,-0.9375,9.390000343322754,-0.0599999986588954,-2.950000047683716,9.369999885559082,0.0299999993294477,-2.890000104904175,41221176
1749115621196943520,8.5,2.75,-0.875,9.369999885559082,0.0299999993294477,-2.900000095367432,9.369999885559082,0.0199999995529651,-2.880000114440918,41221196
1749115621216244033,8.8125,3.1875,-0.625,9.380000114440918,0.0599999986588954,-2.970000028610229,9.369999885559082,0.0199999995529651,-2.869999885559082,41221216
1749115621239997631,7.6875,3.875,0.1875,9.40999984741211,0.0900000035762786,-2.9600000381469727,9.369999885559082,0.0099999997764825,-2.859999895095825,41221239
1749115621259861505,6.5,4.6875,0.25,9.40999984741211,-0.0599999986588954,-2.940000057220459,9.380000114440918,0.0,-2.8399999141693115,41221259
1749115621273233888,6.0625,5.5625,0.4375,9.380000114440918,-0.0099999997764825,-2.9100000858306885,9.380000114440918,0.0,-2.8299999237060547,41221273
1749115621292228111,5.6875,6.3125,0.0625,9.300000190734863,-0.0900000035762786,-2.9800000190734863,9.390000343322754,0.0,-2.809999942779541,41221292
1749115621311205978,6.25,7.875,-1.0625,9.609999656677246,-0.3300000131130218,-2.7799999713897705,9.399999618530272,-0.0099999997764825,-2.789999961853028,41221311
1749115621331956623,6.75,9.625,-1.125,9.380000114440918,-0.1400000005960464,-2.9800000190734863,9.399999618530272,-0.0099999997764825,-2.759999990463257,41221331
1749115621356755054,8.25,11.4375,-3.25,9.520000457763672,-0.1800000071525573,-2.880000114440918,9.40999984741211,-0.0099999997764825,-2.7300000190734863,41221356
1749115621393044276,6.5625,13.4375,-3.375,9.5600004196167,-0.1000000014901161,-2.880000114440918,9.43000030517578,-0.0099999997764825,-2.690000057220459,41221393
1749115621398998505,6.0,15.25,-4.875,9.550000190734863,-0.4099999964237213,-2.759999990463257,9.4399995803833,-0.0099999997764825,-2.640000104904175,41221398
1749115621414234564,6.0,17.1875,-6.75,9.489999771118164,0.0099999997764825,-2.720000028610229,9.449999809265137,0.0,-2.5899999141693115,41221414
1749115621435970901,2.125,18.75,-9.4375,9.390000343322754,-0.3700000047683716,-2.7300000190734863,9.470000267028809,0.0199999995529651,-2.5299999713897705,41221435
1749115621451173091,-1.3125,21.0625,-12.6875,9.59000015258789,-0.1899999976158142,-2.640000104904175,9.479999542236328,0.050000000745058,-2.470000028610229,41221451
1749115621470022693,-7.0625,23.1875,-17.25,9.579999923706056,-0.4099999964237213,-2.5999999046325684,9.5,0.0900000035762786,-2.4100000858306885,41221470
1749115621491170081,-12.375,25.4375,-23.5625,9.850000381469728,-0.4000000059604645,-2.380000114440918,9.520000457763672,0.1700000017881393,-2.319999933242798,41221491
1749115621511981067,-17.75,27.375,-31.875,9.90999984741211,-0.6600000262260437,-2.2300000190734863,9.539999961853027,0.2800000011920929,-2.240000009536743,41221511
1749115621535194353,-20.0,27.625,-40.5625,10.010000228881836,-0.6499999761581421,-1.909999966621399,9.550000190734863,0.4199999868869781,-2.140000104904175,41221535
1749115621554902537,-18.625,25.9375,-47.5,10.390000343322754,-0.4600000083446502,-1.940000057220459,9.5600004196167,0.5799999833106995,-2.059999942779541,41221554
1749115621581182334,-13.0,21.9375,-51.9375,10.670000076293944,-0.6800000071525574,-1.9900000095367432,9.56999969482422,0.75,-1.9800000190734863,41221581
1749115621598982000,0.0625,23.0,-57.125,10.739999771118164,0.8299999833106995,-2.0799999237060547,9.56999969482422,0.9300000071525574,-1.899999976158142,41221598
1749115621612083095,-1.75,18.4375,-58.1875,10.920000076293944,0.2000000029802322,-1.7899999618530271,9.5600004196167,1.1200000047683716,-1.840000033378601,41221612
1749115621635959960,5.5625,15.1875,-57.1875,10.710000038146973,0.8500000238418579,-2.2799999713897705,9.550000190734863,1.309999942779541,-1.7899999618530271,41221635
1749115621661118041,14.8125,14.1875,-54.5625,10.359999656677246,1.2899999618530271,-1.690000057220459,9.529999732971191,1.4800000190734863,-1.75,41221661
1749115621686763620,19.6875,21.25,-53.625,10.029999732971191,0.8299999833106995,-1.2200000286102295,9.510000228881836,1.6399999856948853,-1.7000000476837158,41221686
1749115621702220245,33.9375,29.0,-53.8125,9.43000030517578,1.1200000047683716,-0.6000000238418579,9.5,1.7999999523162842,-1.6299999952316284,41221702
1749115621712197339,50.5,35.0625,-53.375,9.210000038146973,1.149999976158142,-0.4699999988079071,9.479999542236328,1.940000057220459,-1.5499999523162842,41221712
1749115621730942347,78.3125,36.875,-50.625,9.029999732971191,0.6899999976158142,-0.6000000238418579,9.460000038146973,2.069999933242798,-1.4800000190734863,41221730
1749115621759081753,116.875,32.375,-39.75,8.4399995803833,0.699999988079071,-0.7300000190734863,9.449999809265137,2.1600000858306885,-1.4500000476837158,41221759
1749115621778591148,136.5,32.875,-27.5,7.300000190734863,-0.25,-1.0299999713897705,9.4399995803833,2.190000057220459,-1.440000057220459,41221778
1749115621791935209,159.25,30.4375,-11.875,7.440000057220459,-0.3300000131130218,-1.559999942779541,9.449999809265137,2.1600000858306885,-1.4600000381469729,41221791
1749115621830020563,171.3125,27.875,3.4375,8.029999732971191,0.050000000745058,-1.7200000286102295,9.460000038146973,2.0799999237060547,-1.4900000095367432,41221830
1749115621839201746,169.0625,27.4375,18.4375,8.699999809265137,0.449999988079071,-2.309999942779541,9.479999542236328,1.950000047683716,-1.5199999809265137,41221839
1749115621852235685,159.375,27.125,33.0,8.869999885559082,0.3100000023841858,-2.75,9.520000457763672,1.7699999809265137,-1.5299999713897705,41221852
1749115621876055347,158.0625,21.5625,44.0625,9.199999809265137,-0.3400000035762787,-3.240000009536743,9.550000190734863,1.5499999523162842,-1.5399999618530271,41221876
1749115621893261678,162.3125,14.125,51.125,9.649999618530272,0.6600000262260437,-3.180000066757202,9.579999923706056,1.309999942779541,-1.5700000524520874,41221893
1749115621919716063,151.3125,9.8125,57.5625,10.15999984741211,1.0199999809265137,-2.930000066757202,9.609999656677246,1.0399999618530271,-1.600000023841858,41221919
1749115621933082479,125.5,7.1875,64.0,10.109999656677246,1.3200000524520874,-2.619999885559082,9.640000343322754,0.7699999809265137,-1.6100000143051147,41221933
1749115621950828265,93.25,5.4375,68.4375,10.649999618530272,2.130000114440918,-1.950000047683716,9.649999618530272,0.4900000095367431,-1.6200000047683716,41221950
1749115621977975025,56.0,9.0625,69.6875,10.359999656677246,0.5099999904632568,-2.4100000858306885,9.670000076293944,0.2300000041723251,-1.590000033378601,41221977
1749115622005087795,37.0,7.125,65.0625,10.3100004196167,2.039999961853028,-2.7300000190734863,9.670000076293944,0.0,-1.5700000524520874,41222005
1749115622011109454,17.8125,1.375,50.5625,7.289999961853027,7.71999979019165,-7.480000019073486,9.670000076293944,-0.1899999976158142,-1.559999942779541,41222011
1749115622037073967,-57.1875,-10.625,15.5625,10.31999969482422,8.930000305175781,-1.75,9.670000076293944,-0.2599999904632568,-1.600000023841858,41222037
1749115622061023592,-71.875,-4.0625,-11.3125,9.779999732971191,0.8500000238418579,-3.509999990463257,9.65999984741211,-0.2000000029802322,-1.6200000047683716,41222061
1749115622073279101,-44.6875,-0.6875,2.875,10.050000190734863,-1.340000033378601,-1.2599999904632568,9.65999984741211,-0.1599999964237213,-1.6200000047683716,41222073
1749115622095863229,-44.1875,-0.9375,5.25,9.869999885559082,0.5699999928474426,-1.2899999618530271,9.65999984741211,-0.1599999964237213,-1.6299999952316284,41222095
1749115622120675168,-26.75,1.125,-1.5,10.31999969482422,-1.8799999952316284,-0.1199999973177909,9.65999984741211,-0.1400000005960464,-1.6299999952316284,41222120
1749115622182866818,-5.9375,0.5625,-4.0,9.960000038146973,0.3499999940395355,-0.8700000047683716,9.65999984741211,-0.1299999952316284,-1.6299999952316284,41222182
1749115622205911008,-4.375,0.6875,-4.9375,9.729999542236328,-0.1599999964237213,-1.090000033378601,9.65999984741211,-0.1099999994039535,-1.6299999952316284,41222205
1749115622210021913,-5.3125,-0.625,-3.125,9.539999961853027,0.4099999964237213,-1.7899999618530271,9.65999984741211,-0.0900000035762786,-1.6299999952316284,41222210
1749115622220952228,-10.75,-1.3125,-1.5,9.40999984741211,0.0199999995529651,-2.0199999809265137,9.65999984741211,-0.0799999982118606,-1.6299999952316284,41222220
1749115622229966769,-11.25,-2.3125,-1.1875,9.43000030517578,-0.1700000017881393,-1.950000047683716,9.65999984741211,-0.0700000002980232,-1.6399999856948853,41222229
1749115622232833306,-8.75,-2.625,-2.5625,9.5,-0.209999993443489,-1.830000042915344,9.65999984741211,-0.0599999986588954,-1.649999976158142,41222232
1749115622250909462,-6.75,-2.1875,-3.625,9.510000228881836,-0.0900000035762786,-1.6299999952316284,9.65999984741211,-0.0399999991059303,-1.659999966621399,41222250
1749115622272906755,-5.25,-2.125,-4.0,9.68000030517578,0.0199999995529651,-1.2999999523162842,9.65999984741211,-0.0299999993294477,-1.659999966621399,41222272
1749115622300040928,-3.625,-1.9375,-3.6875,9.789999961853027,0.0199999995529651,-1.2300000190734863,9.65999984741211,-0.0099999997764825,-1.6699999570846558,41222300
1749115622311958073,-1.375,-2.0625,-3.0625,9.760000228881836,0.0700000002980232,-1.4299999475479126,9.65999984741211,0.0,-1.6799999475479126,41222311
1749115622336848984,-1.1875,-2.5,-1.875,9.59000015258789,0.1400000005960464,-1.559999942779541,9.65999984741211,0.0,-1.6799999475479126,41222336
1749115622358010447,-3.125,-2.625,-1.0,9.619999885559082,0.1000000014901161,-1.690000057220459,9.649999618530272,0.0099999997764825,-1.690000057220459,41222358
1749115622380796782,-4.25,-2.75,-0.1875,9.710000038146973,-0.0299999993294477,-1.649999976158142,9.649999618530272,0.0099999997764825,-1.7000000476837158,41222380
1749115622392214264,-4.3125,-3.0625,0.625,9.8100004196167,-0.050000000745058,-1.559999942779541,9.649999618530272,0.0099999997764825,-1.7100000381469729,41222392
1749115622410789623,-3.0625,-2.875,0.75,9.720000267028809,-0.1599999964237213,-1.4600000381469729,9.649999618530272,0.0099999997764825,-1.7100000381469729,41222410
1749115622432061990,-1.1875,-2.75,0.3125,9.710000038146973,-0.0900000035762786,-1.5499999523162842,9.649999618530272,0.0099999997764825,-1.7200000286102295,41222432
1749115622459861702,0.0625,-2.8125,-0.0625,9.640000343322754,-0.0700000002980232,-1.6299999952316284,9.649999618530272,0.0099999997764825,-1.7300000190734863,41222459
1749115622472990000,-0.25,-2.6875,-0.125,9.68000030517578,-0.0900000035762786,-1.7000000476837158,9.649999618530272,0.0099999997764825,-1.7400000095367432,41222472
1749115622491959546,-0.5,-2.375,-0.25,9.710000038146973,-0.0799999982118606,-1.7100000381469729,9.640000343322754,0.0,-1.7400000095367432,41222491
1749115622517074577,-0.375,-2.375,-0.9375,9.720000267028809,-0.2000000029802322,-1.6699999570846558,9.640000343322754,0.0099999997764825,-1.75,41222517
1749115622536943033,0.5625,-2.3125,-2.125,9.75,-0.2399999946355819,-1.6299999952316284,9.640000343322754,0.0099999997764825,-1.7599999904632568,41222536
1749115622561963924,2.1875,-2.25,-3.0625,9.81999969482422,-0.209999993443489,-1.6200000047683716,9.640000343322754,0.0099999997764825,-1.7599999904632568,41222561
1749115622574098743,2.5,-2.0625,-3.9375,9.68000030517578,-0.0700000002980232,-1.6699999570846558,9.640000343322754,0.0199999995529651,-1.7699999809265137,41222574
1749115622618031894,2.0,-2.125,-4.3125,9.859999656677246,-0.0700000002980232,-1.7000000476837158,9.640000343322754,0.0299999993294477,-1.7699999809265137,41222618
1749115622625170646,1.125,-2.0625,-4.0625,9.720000267028809,0.0700000002980232,-1.6200000047683716,9.640000343322754,0.0399999991059303,-1.7799999713897705,41222625
1749115622641606832,-0.0625,-2.0,-3.8125,9.6899995803833,0.0099999997764825,-1.649999976158142,9.640000343322754,0.050000000745058,-1.7799999713897705,41222641
1749115622651438021,-0.3125,-1.8125,-3.3125,9.720000267028809,0.0399999991059303,-1.7300000190734863,9.640000343322754,0.0700000002980232,-1.7899999618530271,41222651
1749115622676950785,-0.625,-1.6875,-2.8125,9.600000381469728,0.0700000002980232,-1.7899999618530271,9.640000343322754,0.0799999982118606,-1.7899999618530271,41222676
1749115622701751407,-0.875,-1.4375,-2.25,9.619999885559082,0.1400000005960464,-1.7200000286102295,9.630000114440918,0.0799999982118606,-1.7999999523162842,41222701
1749115622711091154,-0.6875,-1.1875,-1.6875,9.5600004196167,0.1400000005960464,-1.7000000476837158,9.630000114440918,0.0900000035762786,-1.7999999523162842,41222711
1749115622731735971,0.0,-1.125,-1.0625,9.5600004196167,0.1800000071525573,-1.7300000190734863,9.630000114440918,0.0900000035762786,-1.809999942779541,41222731
1749115622756825556,-0.875,-0.875,-0.25,9.65999984741211,0.1899999976158142,-1.7999999523162842,9.630000114440918,0.1000000014901161,-1.809999942779541,41222756
1749115622771319094,-2.25,-0.375,0.75,9.699999809265137,0.1400000005960464,-1.7999999523162842,9.630000114440918,0.1000000014901161,-1.809999942779541,41222771
1749115622797077089,-2.125,-0.25,1.4375,9.720000267028809,0.0900000035762786,-1.7100000381469729,9.630000114440918,0.0900000035762786,-1.809999942779541,41222797
1749115622819933438,-1.5625,0.0625,1.9375,9.630000114440918,0.0799999982118606,-1.6799999475479126,9.630000114440918,0.0900000035762786,-1.809999942779541,41222819
1749115622836030043,-1.3125,0.1875,1.9375,9.630000114440918,0.0799999982118606,-1.7000000476837158,9.630000114440918,0.0799999982118606,-1.809999942779541,41222836
1749115622857963423,-1.5625,0.25,2.125,9.609999656677246,0.0599999986588954,-1.7599999904632568,9.630000114440918,0.0799999982118606,-1.809999942779541,41222857
1749115622872087729,-1.4375,0.5625,2.0,9.670000076293944,0.0299999993294477,-1.7300000190734863,9.630000114440918,0.0700000002980232,-1.809999942779541,41222872
1749115622898158916,-1.1875,0.6875,1.9375,9.65999984741211,0.0,-1.7100000381469729,9.630000114440918,0.0700000002980232,-1.7999999523162842,41222898
1749115622911114549,-0.8125,0.9375,1.5,9.68000030517578,0.0,-1.7100000381469729,9.630000114440918,0.0599999986588954,-1.7999999523162842,41222911
1749115622950948050,0.0625,1.3125,0.5625,9.600000381469728,-0.1000000014901161,-1.7599999904632568,9.630000114440918,0.0599999986588954,-1.7999999523162842,41222950
1749115622972401248,1.5,1.375,-0.8125,9.539999961853027,-0.1099999994039535,-1.7899999618530271,9.640000343322754,0.0599999986588954,-1.7899999618530271,41222972
1749115622977163784,2.375,1.125,-2.0625,9.579999923706056,-0.0700000002980232,-1.7599999904632568,9.640000343322754,0.0599999986588954,-1.7899999618530271,41222977
1749115622992960738,2.375,1.5,-3.25,9.670000076293944,-0.1099999994039535,-1.7400000095367432,9.640000343322754,0.0700000002980232,-1.7799999713897705,41222992
1749115623016107722,2.1875,1.5,-4.0625,9.779999732971191,-0.0700000002980232,-1.690000057220459,9.640000343322754,0.0799999982118606,-1.7799999713897705,41223016
1749115623036917885,1.5625,1.75,-4.3125,9.899999618530272,-0.1099999994039535,-1.6399999856948853,9.640000343322754,0.0900000035762786,-1.7699999809265137,41223036
1749115623051968621,1.3125,1.75,-4.75,9.890000343322754,-0.0399999991059303,-1.7100000381469729,9.640000343322754,0.1000000014901161,-1.7599999904632568,41223051
1749115623076216395,0.75,1.6875,-5.0625,9.75,0.0900000035762786,-1.659999966621399,9.640000343322754,0.1099999994039535,-1.75,41223076
1749115623091892313,0.0,1.6875,-5.125,9.529999732971191,0.1299999952316284,-1.659999966621399,9.640000343322754,0.1299999952316284,-1.75,41223091
1749115623116055673,-0.25,1.0,-5.1875,9.529999732971191,0.2399999946355819,-1.6799999475479126,9.640000343322754,0.1500000059604644,-1.7400000095367432,41223116
1749115623138046036,-1.375,0.25,-4.3125,9.699999809265137,0.270000010728836,-1.6200000047683716,9.640000343322754,0.1599999964237213,-1.7400000095367432,41223138
1749115623150782497,-1.625,0.25,-3.875,9.65999984741211,0.209999993443489,-1.600000023841858,9.640000343322754,0.1800000071525573,-1.7400000095367432,41223150
1749115623172003241,-0.75,-0.1875,-3.125,9.609999656677246,0.1700000017881393,-1.600000023841858,9.640000343322754,0.1899999976158142,-1.7400000095367432,41223172
1749115623197191109,0.25,-0.4375,-2.5625,9.729999542236328,0.270000010728836,-1.590000033378601,9.640000343322754,0.2000000029802322,-1.7400000095367432,41223197
1749115623220058511,0.4375,-0.375,-1.5625,9.84000015258789,0.2399999946355819,-1.590000033378601,9.640000343322754,0.2000000029802322,-1.7400000095367432,41223220
1749115623233173256,0.375,-0.1875,-0.5625,9.869999885559082,0.2399999946355819,-1.5700000524520874,9.640000343322754,0.209999993443489,-1.7300000190734863,41223233
1749115623259692215,0.375,-0.375,0.875,9.699999809265137,0.2199999988079071,-1.6200000047683716,9.640000343322754,0.209999993443489,-1.7300000190734863,41223259
1749115623274401339,0.1875,-0.25,1.1875,9.43000030517578,0.2300000041723251,-1.649999976158142,9.640000343322754,0.2000000029802322,-1.7300000190734863,41223274
1749115623295077551,-0.3125,-0.9375,1.25,9.420000076293944,0.2399999946355819,-1.6100000143051147,9.640000343322754,0.2000000029802322,-1.7300000190734863,41223295
1749115623319404324,-0.6875,-1.0625,1.0625,9.609999656677246,0.2300000041723251,-1.6200000047683716,9.640000343322754,0.1899999976158142,-1.7400000095367432,41223319
1749115623333062514,-0.625,-1.25,1.3125,9.649999618530272,0.2399999946355819,-1.6799999475479126,9.640000343322754,0.1899999976158142,-1.7400000095367432,41223333
1749115623357659886,-0.625,-1.1875,1.5,9.699999809265137,0.209999993443489,-1.7899999618530271,9.640000343322754,0.1899999976158142,-1.75,41223357
1749115623372832269,-1.0,-0.625,2.125,9.75,0.1899999976158142,-1.7899999618530271,9.640000343322754,0.1800000071525573,-1.75,41223372
1749115623392972340,-1.375,0.3125,2.625,9.710000038146973,0.0700000002980232,-1.850000023841858,9.640000343322754,0.1700000017881393,-1.75,41223392
1749115623450708657,-0.5,1.125,2.5,9.710000038146973,0.0,-1.870000004768372,9.640000343322754,0.1599999964237213,-1.75,41223450
1749115623466209922,0.9375,1.875,2.125,9.979999542236328,-0.0199999995529651,-1.7100000381469729,9.640000343322754,0.1500000059604644,-1.7400000095367432,41223466
1749115623474114412,1.375,2.3125,2.25,9.90999984741211,-0.0199999995529651,-1.6299999952316284,9.649999618530272,0.1400000005960464,-1.7300000190734863,41223474
1749115623490036888,0.8125,2.4375,1.8125,9.710000038146973,-0.1500000059604644,-1.5,9.649999618530272,0.1299999952316284,-1.7200000286102295,41223490
1749115623506927779,1.8125,2.0625,0.5625,9.510000228881836,0.0099999997764825,-1.4900000095367432,9.649999618530272,0.1299999952316284,-1.7100000381469729,41223506
1749115623513466955,1.6875,1.4375,-0.9375,9.449999809265137,0.1400000005960464,-1.5499999523162842,9.649999618530272,0.1299999952316284,-1.7100000381469729,41223513
1749115623547235743,1.375,0.625,-2.0,9.510000228881836,0.2199999988079071,-1.600000023841858,9.649999618530272,0.1299999952316284,-1.7000000476837158,41223547
1749115623572030473,0.375,0.125,-2.1875,9.630000114440918,0.1800000071525573,-1.649999976158142,9.649999618530272,0.1400000005960464,-1.7000000476837158,41223572
1749115623582139663,0.125,-0.0625,-1.8125,9.600000381469728,0.2199999988079071,-1.6699999570846558,9.649999618530272,0.1500000059604644,-1.7000000476837158,41223582
1749115623596231155,0.0,0.0,-1.125,9.59000015258789,0.1700000017881393,-1.690000057220459,9.649999618530272,0.1500000059604644,-1.7000000476837158,41223596
1749115623621205347,0.3125,0.0625,-0.875,9.68000030517578,0.1400000005960464,-1.7300000190734863,9.649999618530272,0.1599999964237213,-1.7000000476837158,41223621
1749115623632194624,0.4375,0.5,-0.5,9.829999923706056,0.1299999952316284,-1.7300000190734863,9.649999618530272,0.1599999964237213,-1.7000000476837158,41223632
1749115623656152798,0.1875,0.9375,-0.125,9.890000343322754,0.1000000014901161,-1.7400000095367432,9.649999618530272,0.1599999964237213,-1.7000000476837158,41223656
1749115623670909586,-0.8125,1.375,0.625,9.770000457763672,0.050000000745058,-1.7000000476837158,9.649999618530272,0.1599999964237213,-1.7000000476837158,41223670
1749115623695981297,-0.4375,1.75,0.875,9.760000228881836,0.0599999986588954,-1.659999966621399,9.649999618530272,0.1500000059604644,-1.690000057220459,41223695
1749115623725147583,0.125,1.75,1.125,9.710000038146973,0.2300000041723251,-1.4700000286102295,9.649999618530272,0.1500000059604644,-1.6799999475479126,41223725
1749115623746064108,-0.625,1.1875,1.875,9.68000030517578,0.270000010728836,-1.3799999952316284,9.65999984741211,0.1500000059604644,-1.6799999475479126,41223746
1749115623753036662,-1.75,0.5625,2.9375,9.710000038146973,0.2199999988079071,-1.3899999856948853,9.65999984741211,0.1400000005960464,-1.6699999570846558,41223753
1749115623771718796,-2.125,0.3125,3.6875,9.710000038146973,0.2300000041723251,-1.5099999904632568,9.65999984741211,0.1299999952316284,-1.6699999570846558,41223771
1749115623794994443,-3.125,0.1875,4.875,9.65999984741211,0.2300000041723251,-1.6100000143051147,9.65999984741211,0.1199999973177909,-1.6699999570846558,41223794
1749115623812174688,-4.625,0.3125,5.625,9.56999969482422,0.209999993443489,-1.6399999856948853,9.65999984741211,0.1000000014901161,-1.6699999570846558,41223812
1749115623839002470,-5.625,0.75,6.1875,9.550000190734863,0.050000000745058,-1.7100000381469729,9.65999984741211,0.0799999982118606,-1.6699999570846558,41223839
1749115623862713203,-4.9375,1.5,5.9375,9.699999809265137,-0.0900000035762786,-1.7799999713897705,9.65999984741211,0.0700000002980232,-1.659999966621399,41223862
1749115623870988407,-3.625,2.0625,5.25,9.800000190734863,-0.0099999997764825,-1.7699999809265137,9.65999984741211,0.050000000745058,-1.659999966621399,41223870
1749115623895009868,-4.375,3.375,5.0,9.81999969482422,-0.0700000002980232,-1.7300000190734863,9.65999984741211,0.0399999991059303,-1.649999976158142,41223895
1749115623915911291,-5.1875,4.3125,4.5625,9.739999771118164,-0.1299999952316284,-1.7799999713897705,9.65999984741211,0.0199999995529651,-1.6399999856948853,41223915
1749115623940444478,-5.375,4.9375,4.1875,9.699999809265137,-0.1199999973177909,-1.7300000190734863,9.670000076293944,0.0099999997764825,-1.6200000047683716,41223940
1749115623956046996,-5.4375,5.5625,3.625,9.479999542236328,-0.0700000002980232,-1.6200000047683716,9.670000076293944,0.0,-1.600000023841858,41223956
1749115623971966129,-3.5,5.4375,2.8125,9.470000267028809,-0.1500000059604644,-1.5800000429153442,9.670000076293944,0.0,-1.590000033378601,41223971
1749115623996712779,-0.5,4.75,1.8125,9.59000015258789,0.0199999995529651,-1.409999966621399,9.670000076293944,-0.0099999997764825,-1.5700000524520874,41223996
1749115624011196396,0.125,4.5,1.5,9.800000190734863,-0.050000000745058,-1.2899999618530271,9.68000030517578,-0.0099999997764825,-1.5499999523162842,41224011
1749115624031990311,0.1875,4.375,1.9375,9.869999885559082,-0.0599999986588954,-1.2899999618530271,9.68000030517578,-0.0199999995529651,-1.5399999618530271,41224031
1749115624054349166,0.8125,3.4375,2.0,9.800000190734863,-0.2000000029802322,-1.2799999713897705,9.68000030517578,-0.0299999993294477,-1.5199999809265137,41224054
1749115624070908638,2.125,2.125,1.6875,9.829999923706056,0.0,-1.2799999713897705,9.68000030517578,-0.0299999993294477,-1.5099999904632568,41224070
1749115624096892267,0.5625,1.8125,2.125,9.75,0.0,-1.2999999523162842,9.6899995803833,-0.0399999991059303,-1.5,41224096
1749115624123085894,-1.125,1.875,2.5,9.670000076293944,-0.0199999995529651,-1.3899999856948853,9.6899995803833,-0.050000000745058,-1.4900000095367432,41224123
1749115624142031995,-1.875,1.9375,2.375,9.550000190734863,-0.1199999973177909,-1.4700000286102295,9.6899995803833,-0.050000000745058,-1.4800000190734863,41224142
1749115624154125204,-1.625,1.9375,1.75,9.529999732971191,-0.1400000005960464,-1.6299999952316284,9.6899995803833,-0.0599999986588954,-1.4800000190734863,41224154
1749115624176885343,-2.1875,2.125,0.5625,9.59000015258789,-0.2399999946355819,-1.6699999570846558,9.6899995803833,-0.0599999986588954,-1.4700000286102295,41224176
1749115624202982613,-2.0625,2.3125,-0.625,9.670000076293944,-0.25,-1.590000033378601,9.6899995803833,-0.0599999986588954,-1.4700000286102295,41224202
1749115624217776708,-1.375,2.8125,-2.375,9.779999732971191,-0.4000000059604645,-1.5700000524520874,9.6899995803833,-0.0599999986588954,-1.4600000381469729,41224217
1749115624232093335,-0.0625,3.1875,-4.0,9.93000030517578,-0.4199999868869781,-1.409999966621399,9.6899995803833,-0.050000000745058,-1.4500000476837158,41224232
1749115624258159958,1.625,3.5625,-5.625,9.869999885559082,-0.3300000131130218,-1.309999942779541,9.6899995803833,-0.0399999991059303,-1.440000057220459,41224258
1749115624272011794,2.75,3.5625,-7.3125,9.670000076293944,-0.2599999904632568,-1.2899999618530271,9.699999809265137,-0.0299999993294477,-1.4299999475479126,41224272
1749115624297987115,3.75,3.5,-9.625,9.640000343322754,-0.2399999946355819,-1.3600000143051147,9.699999809265137,-0.0099999997764825,-1.409999966621399,41224297
1749115624311744141,4.6875,3.375,-11.75,9.640000343322754,-0.1099999994039535,-1.4199999570846558,9.699999809265137,0.0199999995529651,-1.399999976158142,41224311
1749115624332032431,4.0625,3.4375,-13.3125,9.920000076293944,-0.0700000002980232,-1.4199999570846558,9.699999809265137,0.0599999986588954,-1.3899999856948853,41224332
1749115624357397304,3.1875,3.6875,-13.75,9.979999542236328,-0.0299999993294477,-1.3300000429153442,9.699999809265137,0.1000000014901161,-1.3799999952316284,41224357
1749115624381378310,2.8125,3.75,-13.75,9.949999809265137,0.1099999994039535,-1.2799999713897705,9.699999809265137,0.1400000005960464,-1.3600000143051147,41224381
1749115624396919340,2.6875,3.75,-13.4375,9.75,0.2300000041723251,-1.2599999904632568,9.710000038146973,0.1800000071525573,-1.350000023841858,41224396
1749115624412052644,2.4375,3.5,-13.0625,9.630000114440918,0.3799999952316284,-1.2300000190734863,9.710000038146973,0.2300000041723251,-1.340000033378601,41224412
1749115624432030147,1.5,3.3125,-12.3125,9.550000190734863,0.5,-1.1799999475479126,9.710000038146973,0.270000010728836,-1.3300000429153442,41224432
1749115624452021987,0.625,2.625,-11.3125,9.56999969482422,0.5199999809265137,-1.149999976158142,9.710000038146973,0.3000000119209289,-1.3200000524520874,41224452
1749115624475965162,0.1875,2.0,-10.25,9.619999885559082,0.5799999833106995,-1.159999966621399,9.710000038146973,0.3400000035762787,-1.309999942779541,41224475
1749115624491985322,-0.8125,1.0625,-8.9375,9.670000076293944,0.6299999952316284,-1.159999966621399,9.710000038146973,0.3799999952316284,-1.2999999523162842,41224491
1749115624511135719,-1.6875,0.1875,-7.1875,9.640000343322754,0.6200000047683716,-1.159999966621399,9.710000038146973,0.4099999964237213,-1.2999999523162842,41224511
1749115624535047595,-2.3125,-0.3125,-5.6875,9.770000457763672,0.6200000047683716,-1.149999976158142,9.710000038146973,0.4300000071525574,-1.2999999523162842,41224535
1749115624555451365,-2.125,-0.4375,-4.1875,9.75,0.6600000262260437,-1.159999966621399,9.699999809265137,0.449999988079071,-1.2899999618530271,41224555
1749115624575229290,-2.25,-0.625,-2.4375,9.68000030517578,0.6800000071525574,-1.2100000381469729,9.699999809265137,0.4600000083446502,-1.2899999618530271,41224575
1749115624600903815,-2.9375,-0.8125,-1.0,9.630000114440918,0.6100000143051147,-1.2699999809265137,9.699999809265137,0.4699999988079071,-1.2899999618530271,41224600
1749115624621487063,-2.75,-1.0,0.0625,9.619999885559082,0.6299999952316284,-1.3300000429153442,9.699999809265137,0.4699999988079071,-1.2999999523162842,41224621
1749115624631901807,-3.5,-0.875,0.5625,9.649999618530272,0.5699999928474426,-1.2599999904632568,9.699999809265137,0.4799999892711639,-1.2999999523162842,41224631
1749115624657735591,-3.625,-0.6875,1.0,9.68000030517578,0.5600000023841858,-1.2699999809265137,9.699999809265137,0.4799999892711639,-1.2999999523162842,41224657
1749115624672111136,-3.375,-0.4375,1.3125,9.699999809265137,0.5099999904632568,-1.309999942779541,9.699999809265137,0.4699999988079071,-1.2999999523162842,41224672
1749115624721228294,-2.9375,-0.125,1.5625,9.670000076293944,0.4799999892711639,-1.350000023841858,9.699999809265137,0.4699999988079071,-1.2999999523162842,41224721
1749115624744962758,-2.5625,0.0625,1.625,9.6899995803833,0.4099999964237213,-1.3799999952316284,9.699999809265137,0.4699999988079071,-1.2999999523162842,41224744
1749115624770210213,-2.25,0.3125,1.375,9.729999542236328,0.3600000143051147,-1.340000033378601,9.699999809265137,0.4600000083446502,-1.2999999523162842,41224770
1749115624796936402,-1.25,0.6875,0.8125,9.770000457763672,0.4000000059604645,-1.2999999523162842,9.699999809265137,0.4600000083446502,-1.2999999523162842,41224796
1749115624819900874,-1.4375,1.0,0.6875,9.8100004196167,0.3199999928474426,-1.2599999904632568,9.699999809265137,0.4600000083446502,-1.2999999523162842,41224819
1749115624823838662,-1.1875,0.9375,0.25,9.789999961853027,0.270000010728836,-1.2699999809265137,9.699999809265137,0.4600000083446502,-1.2899999618530271,41224823
1749115624842164735,0.0,0.75,-0.9375,9.779999732971191,0.2399999946355819,-1.2400000095367432,9.699999809265137,0.4600000083446502,-1.2899999618530271,41224842
1749115624844850180,0.875,0.8125,-2.1875,9.779999732971191,0.2399999946355819,-1.190000057220459,9.710000038146973,0.4600000083446502,-1.2899999618530271,41224844
1749115624851110311,1.4375,0.75,-3.375,9.8100004196167,0.3100000023841858,-1.2200000286102295,9.710000038146973,0.4600000083446502,-1.2799999713897705,41224851
1749115624875883024,1.75,0.5625,-4.4375,9.800000190734863,0.3300000131130218,-1.2400000095367432,9.710000038146973,0.4699999988079071,-1.2799999713897705,41224875
1749115624892965366,1.75,0.375,-5.0625,9.800000190734863,0.3499999940395355,-1.2300000190734863,9.699999809265137,0.4900000095367431,-1.2799999713897705,41224892
1749115624920029587,1.75,0.3125,-5.8125,9.779999732971191,0.3799999952316284,-1.2100000381469729,9.699999809265137,0.5099999904632568,-1.2799999713897705,41224920
1749115624947226508,2.0625,0.125,-6.375,9.779999732971191,0.3700000047683716,-1.1799999475479126,9.699999809265137,0.5199999809265137,-1.2799999713897705,41224947
1749115624962777607,2.5,-0.1875,-7.0,9.8100004196167,0.4900000095367431,-1.2100000381469729,9.699999809265137,0.5400000214576721,-1.2799999713897705,41224962
1749115624984148192,2.4375,-0.375,-7.3125,9.779999732971191,0.5099999904632568,-1.2200000286102295,9.699999809265137,0.5699999928474426,-1.2799999713897705,41224984
1749115625003117770,2.125,-0.4375,-7.25,9.75,0.5799999833106995,-1.2100000381469729,9.699999809265137,0.5899999737739563,-1.2799999713897705,41225003
1749115625011240824,1.6875,-0.625,-7.0,9.739999771118164,0.6499999761581421,-1.190000057220459,9.699999809265137,0.6100000143051147,-1.2799999713897705,41225011
1749115625031964925,1.4375,-0.8125,-6.875,9.710000038146973,0.6600000262260437,-1.2000000476837158,9.699999809265137,0.6299999952316284,-1.2799999713897705,41225031
1749115625061145122,1.625,-1.1875,-6.8125,9.670000076293944,0.699999988079071,-1.25,9.6899995803833,0.6600000262260437,-1.2899999618530271,41225061
1749115625072205010,1.1875,-1.5625,-6.6875,9.68000030517578,0.7400000095367432,-1.2300000190734863,9.6899995803833,0.6800000071525574,-1.2899999618530271,41225072
1749115625092367008,0.9375,-1.75,-6.5,9.710000038146973,0.7099999785423279,-1.25,9.6899995803833,0.699999988079071,-1.2999999523162842,41225092
1749115625110924199,1.0625,-1.75,-6.3125,9.729999542236328,0.7599999904632568,-1.2599999904632568,9.6899995803833,0.7200000286102295,-1.2999999523162842,41225110
1749115625133994910,0.875,-1.8125,-5.875,9.720000267028809,0.7799999713897705,-1.2699999809265137,9.68000030517578,0.7400000095367432,-1.309999942779541,41225133
1749115625160117349,0.4375,-1.9375,-5.5625,9.68000030517578,0.7900000214576721,-1.2899999618530271,9.68000030517578,0.7599999904632568,-1.309999942779541,41225160
1749115625175995931,0.25,-1.9375,-5.3125,9.699999809265137,0.7900000214576721,-1.2699999809265137,9.68000030517578,0.7799999713897705,-1.3200000524520874,41225175
1749115625193309450,0.1875,-1.9375,-4.875,9.720000267028809,0.800000011920929,-1.2599999904632568,9.68000030517578,0.7900000214576721,-1.3300000429153442,41225193
1749115625217972965,0.1875,-1.9375,-4.4375,9.68000030517578,0.8100000023841858,-1.2899999618530271,9.68000030517578,0.8100000023841858,-1.3300000429153442,41225217
1749115625230777931,0.125,-1.9375,-4.0,9.670000076293944,0.8100000023841858,-1.2899999618530271,9.670000076293944,0.8199999928474426,-1.340000033378601,41225230
1749115625259038558,0.125,-1.8125,-3.5625,9.670000076293944,0.8199999928474426,-1.2999999523162842,9.670000076293944,0.8299999833106995,-1.340000033378601,41225259
1749115625271958413,0.3125,-1.6875,-3.0625,9.609999656677246,0.8500000238418579,-1.3700000047683716,9.670000076293944,0.8399999737739563,-1.350000023841858,41225271
1749115625289983206,0.5625,-1.625,-2.1875,9.649999618530272,0.8799999952316284,-1.3700000047683716,9.670000076293944,0.8500000238418579,-1.3600000143051147,41225289
1749115625310907969,0.4375,-1.375,-1.5,9.630000114440918,0.8899999856948853,-1.3600000143051147,9.670000076293944,0.8600000143051147,-1.3600000143051147,41225310
1749115625336109665,0.125,-1.25,-0.6875,9.630000114440918,0.8799999952316284,-1.3300000429153442,9.670000076293944,0.8600000143051147,-1.3600000143051147,41225336
1749115625351173874,-0.0625,-1.25,-0.125,9.670000076293944,0.8399999737739563,-1.2999999523162842,9.670000076293944,0.8600000143051147,-1.3700000047683716,41225351
1749115625376278102,0.0,-1.3125,0.5625,9.710000038146973,0.8199999928474426,-1.2999999523162842,9.670000076293944,0.8600000143051147,-1.3700000047683716,41225376
1749115625391890396,0.0625,-1.4375,0.8125,9.720000267028809,0.800000011920929,-1.350000023841858,9.670000076293944,0.8600000143051147,-1.3799999952316284,41225391
1749115625418277205,-0.1875,-1.5625,1.0,9.739999771118164,0.8100000023841858,-1.340000033378601,9.670000076293944,0.8500000238418579,-1.3799999952316284,41225418
1749115625431899314,-0.4375,-1.4375,1.0625,9.6899995803833,0.7900000214576721,-1.3600000143051147,9.65999984741211,0.8500000238418579,-1.3899999856948853,41225431
1749115625451953043,-0.375,-1.3125,1.0625,9.699999809265137,0.7699999809265137,-1.350000023841858,9.65999984741211,0.8500000238418579,-1.3899999856948853,41225451
1749115625476372708,-0.0625,-1.375,0.6875,9.68000030517578,0.7799999713897705,-1.3700000047683716,9.65999984741211,0.8399999737739563,-1.3899999856948853,41225476
1749115625497975313,0.125,-1.1875,0.4375,9.729999542236328,0.7400000095367432,-1.3899999856948853,9.65999984741211,0.8399999737739563,-1.399999976158142,41225497
1749115625517060395,0.625,-1.0625,0.0625,9.729999542236328,0.7599999904632568,-1.3700000047683716,9.65999984741211,0.8399999737739563,-1.399999976158142,41225517
1749115625534124279,0.625,-1.1875,0.0,9.729999542236328,0.7900000214576721,-1.350000023841858,9.65999984741211,0.8399999737739563,-1.409999966621399,41225534
1749115625550943536,0.5,-1.1875,0.0625,9.710000038146973,0.800000011920929,-1.3200000524520874,9.65999984741211,0.8399999737739563,-1.409999966621399,41225550
1749115625574163937,0.5625,-1.4375,0.1875,9.670000076293944,0.800000011920929,-1.3200000524520874,9.65999984741211,0.8399999737739563,-1.409999966621399,41225574
1749115625591313272,0.375,-1.5625,0.4375,9.710000038146973,0.8199999928474426,-1.350000023841858,9.65999984741211,0.8399999737739563,-1.4199999570846558,41225591
1749115625611214019,0.375,-1.75,0.75,9.6899995803833,0.8199999928474426,-1.3600000143051147,9.65999984741211,0.8399999737739563,-1.4199999570846558,41225611
1749115625633066968,0.0625,-1.9375,1.25,9.6899995803833,0.8100000023841858,-1.399999976158142,9.65999984741211,0.8299999833106995,-1.4299999475479126,41225633
1749115625652014684,-0.25,-1.875,1.625,9.65999984741211,0.8199999928474426,-1.409999966621399,9.65999984741211,0.8299999833106995,-1.440000057220459,41225652
1749115625671887901,-0.4375,-1.75,2.125,9.68000030517578,0.800000011920929,-1.409999966621399,9.65999984741211,0.8199999928474426,-1.440000057220459,41225671
1749115625694911618,-0.4375,-1.875,2.0625,9.65999984741211,0.7900000214576721,-1.4299999475479126,9.65999984741211,0.8199999928474426,-1.4500000476837158,41225694
1749115625714116061,-0.25,-1.75,2.375,9.670000076293944,0.7900000214576721,-1.4299999475479126,9.65999984741211,0.8100000023841858,-1.4500000476837158,41225714
1749115625730987650,-0.5,-1.75,2.5625,9.699999809265137,0.7900000214576721,-1.4199999570846558,9.65999984741211,0.800000011920929,-1.4600000381469729,41225730
1749115625751121479,-0.5,-1.6875,3.125,9.699999809265137,0.7900000214576721,-1.4199999570846558,9.65999984741211,0.7900000214576721,-1.4600000381469729,41225751
1749115625772444909,-0.6875,-1.4375,3.625,9.729999542236328,0.800000011920929,-1.409999966621399,9.65999984741211,0.7799999713897705,-1.4700000286102295,41225772
1749115625791818720,-0.9375,-1.5625,4.0,9.670000076293944,0.800000011920929,-1.4700000286102295,9.65999984741211,0.7699999809265137,-1.4700000286102295,41225791
1749115625813657612,-1.0,-1.3125,4.4375,9.649999618530272,0.7799999713897705,-1.4900000095367432,9.65999984741211,0.75,-1.4800000190734863,41225813
1749115625832078789,-0.625,-1.0625,4.75,9.640000343322754,0.7799999713897705,-1.4600000381469729,9.65999984741211,0.7400000095367432,-1.4800000190734863,41225832
1749115625851167829,-0.5625,-0.8125,5.3125,9.670000076293944,0.7699999809265137,-1.5099999904632568,9.65999984741211,0.7200000286102295,-1.4800000190734863,41225851
1749115625877063858,-0.5,-0.625,5.3125,9.640000343322754,0.6899999976158142,-1.5,9.65999984741211,0.699999988079071,-1.4900000095367432,41225877
1749115625893044567,-0.1875,-0.375,5.625,9.699999809265137,0.699999988079071,-1.5,9.65999984741211,0.6899999976158142,-1.4900000095367432,41225893
1749115625919063761,-0.5,-0.125,5.8125,9.729999542236328,0.6499999761581421,-1.440000057220459,9.65999984741211,0.6700000166893005,-1.4900000095367432,41225919
1749115625945690286,-0.25,0.0,5.8125,9.729999542236328,0.6000000238418579,-1.440000057220459,9.670000076293944,0.6499999761581421,-1.4900000095367432,41225945
1749115625950948404,0.0625,0.1875,5.5625,9.68000030517578,0.5699999928474426,-1.4600000381469729,9.670000076293944,0.6299999952316284,-1.4900000095367432,41225950
1749115625985884164,0.25,0.25,4.9375,9.720000267028809,0.5199999809265137,-1.4700000286102295,9.670000076293944,0.6100000143051147,-1.4900000095367432,41225985
1749115626010912946,0.3125,0.375,4.1875,9.699999809265137,0.4799999892711639,-1.4700000286102295,9.670000076293944,0.6000000238418579,-1.4900000095367432,41226010
1749115626035951717,0.1875,0.5,3.3125,9.699999809265137,0.4600000083446502,-1.4900000095367432,9.670000076293944,0.5899999737739563,-1.4900000095367432,41226035
1749115626052100066,0.5625,0.5625,2.3125,9.75,0.4099999964237213,-1.4900000095367432,9.670000076293944,0.5799999833106995,-1.4900000095367432,41226052
1749115626072331551,1.0625,0.6875,1.25,9.75,0.4099999964237213,-1.4900000095367432,9.670000076293944,0.5699999928474426,-1.4800000190734863,41226072
1749115626076975544,1.0625,0.8125,0.4375,9.779999732971191,0.4300000071525574,-1.440000057220459,9.670000076293944,0.5699999928474426,-1.4800000190734863,41226076
1749115626102907030,1.1875,1.0625,-0.3125,9.770000457763672,0.4600000083446502,-1.4700000286102295,9.670000076293944,0.5699999928474426,-1.4800000190734863,41226102
1749115626114113975,1.0625,1.1875,-0.8125,9.739999771118164,0.4799999892711639,-1.440000057220459,9.670000076293944,0.5699999928474426,-1.4700000286102295,41226114
1749115626134889994,1.0625,1.3125,-1.4375,9.6899995803833,0.5199999809265137,-1.4299999475479126,9.670000076293944,0.5699999928474426,-1.4700000286102295,41226134
1749115626161035666,1.5,1.3125,-1.6875,9.6899995803833,0.5299999713897705,-1.4500000476837158,9.670000076293944,0.5799999833106995,-1.4700000286102295,41226161
1749115626175096900,1.4375,1.375,-2.0,9.6899995803833,0.5699999928474426,-1.4299999475479126,9.670000076293944,0.5899999737739563,-1.4600000381469729,41226175
1749115626190924949,1.0625,1.25,-1.875,9.710000038146973,0.6100000143051147,-1.4199999570846558,9.670000076293944,0.5899999737739563,-1.4600000381469729,41226190
1749115626211046704,0.8125,1.125,-1.5,9.710000038146973,0.6000000238418579,-1.3899999856948853,9.670000076293944,0.6000000238418579,-1.4500000476837158,41226211
1749115626235019558,0.875,1.0625,-1.375,9.729999542236328,0.6299999952316284,-1.3700000047683716,9.670000076293944,0.6000000238418579,-1.4500000476837158,41226235
1749115626260147030,0.5,1.0625,-1.4375,9.670000076293944,0.6000000238418579,-1.4299999475479126,9.670000076293944,0.6100000143051147,-1.4500000476837158,41226260
1749115626271804899,0.4375,1.0,-1.4375,9.65999984741211,0.6200000047683716,-1.4199999570846558,9.670000076293944,0.6100000143051147,-1.440000057220459,41226271
1749115626296051437,0.1875,0.75,-1.3125,9.6899995803833,0.6200000047683716,-1.3899999856948853,9.670000076293944,0.6100000143051147,-1.440000057220459,41226296
1749115626313207234,-0.0625,0.875,-1.3125,9.720000267028809,0.6299999952316284,-1.3799999952316284,9.670000076293944,0.6200000047683716,-1.440000057220459,41226313
1749115626330991256,0.0,0.9375,-1.1875,9.729999542236328,0.6299999952316284,-1.3899999856948853,9.670000076293944,0.6200000047683716,-1.440000057220459,41226330
1749115626352152540,-0.375,0.8125,-1.3125,9.710000038146973,0.6000000238418579,-1.4199999570846558,9.68000030517578,0.6299999952316284,-1.4299999475479126,41226352
1749115626371834548,-0.1875,0.8125,-1.25,9.699999809265137,0.6200000047683716,-1.3700000047683716,9.68000030517578,0.6299999952316284,-1.4299999475479126,41226371
1749115626394937205,-0.3125,0.75,-1.25,9.699999809265137,0.6100000143051147,-1.399999976158142,9.68000030517578,0.6399999856948853,-1.4299999475479126,41226394
1749115626414864027,-0.25,0.75,-1.375,9.65999984741211,0.6499999761581421,-1.399999976158142,9.68000030517578,0.6399999856948853,-1.4299999475479126,41226414
1749115626431766473,-0.375,0.875,-1.3125,9.65999984741211,0.6200000047683716,-1.3899999856948853,9.68000030517578,0.6399999856948853,-1.4199999570846558,41226431
1749115626456180063,-0.5625,0.75,-1.25,9.6899995803833,0.6399999856948853,-1.399999976158142,9.68000030517578,0.6499999761581421,-1.4199999570846558,41226456
1749115626477172932,-0.25,0.75,-1.25,9.699999809265137,0.6499999761581421,-1.3899999856948853,9.68000030517578,0.6499999761581421,-1.4199999570846558,41226477
1749115626512695179,-0.125,0.6875,-1.125,9.699999809265137,0.6499999761581421,-1.350000023841858,9.68000030517578,0.6600000262260437,-1.4199999570846558,41226512
1749115626537951408,0.0,0.5,-1.125,9.720000267028809,0.6499999761581421,-1.3600000143051147,9.68000030517578,0.6600000262260437,-1.409999966621399,41226537
1749115626547088711,-0.1875,0.625,-1.0,9.739999771118164,0.6299999952316284,-1.350000023841858,9.68000030517578,0.6600000262260437,-1.409999966621399,41226547
1749115626552069189,0.125,0.6875,-0.75,9.729999542236328,0.6600000262260437,-1.3899999856948853,9.68000030517578,0.6700000166893005,-1.409999966621399,41226552
1749115626570880163,0.4375,0.5625,-0.75,9.720000267028809,0.6899999976158142,-1.3799999952316284,9.68000030517578,0.6700000166893005,-1.409999966621399,41226570
1749115626595981712,0.125,0.4375,-0.5,9.6899995803833,0.6700000166893005,-1.340000033378601,9.68000030517578,0.6700000166893005,-1.409999966621399,41226595
1749115626611110685,0.375,0.5625,-0.6875,9.670000076293944,0.6499999761581421,-1.350000023841858,9.68000030517578,0.6700000166893005,-1.409999966621399,41226611
1749115626633121172,0.125,0.4375,-0.6875,9.739999771118164,0.6700000166893005,-1.3300000429153442,9.68000030517578,0.6700000166893005,-1.409999966621399,41226633
1749115626651059921,0.6875,0.3125,-0.6875,9.75,0.6899999976158142,-1.3700000047683716,9.670000076293944,0.6800000071525574,-1.409999966621399,41226651
1749115626677781722,0.0625,0.125,-0.4375,9.699999809265137,0.6899999976158142,-1.3200000524520874,9.670000076293944,0.6800000071525574,-1.409999966621399,41226677
1749115626702690504,0.125,0.0,-0.75,9.65999984741211,0.6899999976158142,-1.3300000429153442,9.670000076293944,0.6800000071525574,-1.409999966621399,41226702
1749115626712002889,0.25,-0.0625,-1.0,9.579999923706056,0.6200000047683716,-1.350000023841858,9.670000076293944,0.6800000071525574,-1.409999966621399,41226712
1749115626731089202,0.5625,-0.1875,-1.5625,9.550000190734863,0.6399999856948853,-1.3600000143051147,9.670000076293944,0.6899999976158142,-1.409999966621399,41226731
1749115626751782345,1.0625,-0.3125,-2.625,9.5600004196167,0.6200000047683716,-1.4299999475479126,9.670000076293944,0.6899999976158142,-1.409999966621399,41226751
1749115626776887759,2.125,-0.25,-3.75,9.640000343322754,0.550000011920929,-1.409999966621399,9.670000076293944,0.699999988079071,-1.409999966621399,41226776
1749115626798022616,3.125,-0.5,-4.75,9.81999969482422,0.4000000059604645,-1.3899999856948853,9.670000076293944,0.7099999785423279,-1.409999966621399,41226798
1749115626810978692,5.0,-0.75,-6.0,9.9399995803833,0.4099999964237213,-1.3200000524520874,9.670000076293944,0.7300000190734863,-1.4199999570846558,41226810
1749115626836042334,5.625,-1.0625,-7.375,10.029999732971191,0.4600000083446502,-1.2000000476837158,9.670000076293944,0.75,-1.4199999570846558,41226836
1749115626852280131,5.0625,-1.75,-7.9375,9.979999542236328,0.6100000143051147,-1.1799999475479126,9.670000076293944,0.7699999809265137,-1.4199999570846558,41226852
1749115626871040973,4.25,-2.875,-8.3125,9.859999656677246,0.6899999976158142,-1.149999976158142,9.65999984741211,0.7900000214576721,-1.4299999475479126,41226871
1749115626891277716,3.5625,-4.4375,-8.1875,9.770000457763672,0.7900000214576721,-1.149999976158142,9.65999984741211,0.8100000023841858,-1.440000057220459,41226891
1749115626915187684,2.5625,-6.0,-7.4375,9.739999771118164,0.8299999833106995,-1.159999966621399,9.65999984741211,0.8399999737739563,-1.4500000476837158,41226915
1749115626941140444,0.9375,-7.5625,-6.25,9.59000015258789,0.7900000214576721,-1.2200000286102295,9.649999618530272,0.8600000143051147,-1.4700000286102295,41226941
1749115626967996647,0.25,-9.0,-5.0625,9.8100004196167,0.9100000262260436,-1.3200000524520874,9.649999618530272,0.8700000047683716,-1.4900000095367432,41226967
1749115626990758177,-1.0,-10.125,-3.375,9.699999809265137,0.9900000095367432,-1.2799999713897705,9.640000343322754,0.8899999856948853,-1.5199999809265137,41226990
1749115627018764138,-2.1875,-10.9375,-2.1875,9.4399995803833,1.0199999809265137,-1.4500000476837158,9.630000114440918,0.8999999761581421,-1.5499999523162842,41227018
1749115627039656472,-2.875,-11.5625,-1.4375,9.3100004196167,1.100000023841858,-1.5299999713897705,9.630000114440918,0.8999999761581421,-1.590000033378601,41227039
1749115627048016187,-3.8125,-11.25,-1.125,9.239999771118164,1.0399999618530271,-1.850000023841858,9.619999885559082,0.9100000262260436,-1.6200000047683716,41227048
1749115627050859575,-6.25,-10.75,0.375,9.529999732971191,1.2599999904632568,-1.919999957084656,9.619999885559082,0.9100000262260436,-1.659999966621399,41227050
1749115627070986335,-7.6875,-8.375,2.125,9.579999923706056,0.7599999904632568,-1.809999942779541,9.609999656677246,0.9100000262260436,-1.690000057220459,41227070
1749115627093198295,-4.1875,-7.125,1.8125,9.5600004196167,0.8399999737739563,-2.069999933242798,9.609999656677246,0.9100000262260436,-1.7100000381469729,41227093
1749115627116493529,-0.3125,-5.4375,1.75,9.6899995803833,1.0299999713897705,-1.9299999475479128,9.600000381469728,0.8999999761581421,-1.7300000190734863,41227116
1749115627160015987,-1.625,-3.9375,3.6875,9.630000114440918,0.8799999952316284,-1.659999966621399,9.600000381469728,0.8999999761581421,-1.7400000095367432,41227160
1749115627165865684,-1.5,-3.5625,4.0625,9.600000381469728,0.7900000214576721,-1.7300000190734863,9.600000381469728,0.8799999952316284,-1.75,41227165
1749115627181154716,-0.25,-3.0625,4.3125,9.619999885559082,0.7900000214576721,-1.7699999809265137,9.600000381469728,0.8700000047683716,-1.7599999904632568,41227181
1749115627192382504,0.625,-2.25,3.5625,9.529999732971191,0.8199999928474426,-1.7799999713897705,9.600000381469728,0.8600000143051147,-1.7699999809265137,41227192
1749115627215909124,-1.625,-2.6875,3.9375,9.59000015258789,0.800000011920929,-1.6699999570846558,9.600000381469728,0.8500000238418579,-1.7799999713897705,41227215
1749115627233003083,-3.5,-3.0625,3.875,9.770000457763672,0.4000000059604645,-1.6200000047683716,9.600000381469728,0.8299999833106995,-1.7899999618530271,41227233
1749115627275834060,0.375,-2.3125,2.0,9.75,0.4900000095367431,-1.8200000524520876,9.600000381469728,0.8199999928474426,-1.7999999523162842,41227275
1749115627301992267,3.1875,-1.0,0.125,9.890000343322754,0.5099999904632568,-2.0299999713897705,9.600000381469728,0.8199999928474426,-1.7999999523162842,41227301
1749115627326941482,4.375,0.375,-1.4375,9.619999885559082,0.5199999809265137,-2.0899999141693115,9.600000381469728,0.8199999928474426,-1.7999999523162842,41227326
1749115627352019079,5.875,1.6875,-3.0625,9.880000114440918,0.6800000071525574,-2.039999961853028,9.600000381469728,0.8299999833106995,-1.7999999523162842,41227352
1749115627364142219,6.75,2.5,-3.125,9.960000038146973,0.8600000143051147,-1.690000057220459,9.600000381469728,0.8299999833106995,-1.7899999618530271,41227364
1749115627378086109,5.375,3.5625,-1.5,9.699999809265137,0.8600000143051147,-1.6200000047683716,9.600000381469728,0.8299999833106995,-1.7799999713897705,41227378
1749115627384059178,4.5,3.5,0.0,9.350000381469728,0.959999978542328,-1.5800000429153442,9.600000381469728,0.8299999833106995,-1.7699999809265137,41227384
1749115627391834476,4.25,3.125,0.8125,9.100000381469728,0.9900000095367432,-1.6200000047683716,9.600000381469728,0.8299999833106995,-1.7599999904632568,41227391
1749115627411687280,4.125,2.875,0.8125,8.920000076293945,1.1299999952316284,-1.909999966621399,9.609999656677246,0.8199999928474426,-1.7599999904632568,41227411
1749115627432081339,1.75,2.125,0.9375,9.300000190734863,1.100000023841858,-1.9700000286102293,9.609999656677246,0.8199999928474426,-1.75,41227432
1749115627455035102,-2.0625,2.0625,1.75,9.390000343322754,1.0199999809265137,-1.870000004768372,9.609999656677246,0.8100000023841858,-1.7400000095367432,41227455
1749115627471106507,-4.875,2.4375,2.25,9.529999732971191,0.699999988079071,-1.8200000524520876,9.609999656677246,0.8100000023841858,-1.7300000190734863,41227471
1749115627496152152,-3.625,3.0625,1.5,9.729999542236328,0.6399999856948853,-1.7599999904632568,9.609999656677246,0.8100000023841858,-1.7200000286102295,41227496
1749115627512013239,-1.5,4.1875,0.4375,9.760000228881836,0.6499999761581421,-1.830000042915344,9.619999885559082,0.8100000023841858,-1.7100000381469729,41227512
1749115627537702143,-1.125,4.75,-0.5625,9.979999542236328,0.6299999952316284,-1.8899999856948853,9.619999885559082,0.8100000023841858,-1.690000057220459,41227537
1749115627552933830,-2.6875,5.4375,-1.0,9.949999809265137,0.5899999737739563,-1.649999976158142,9.619999885559082,0.8100000023841858,-1.6799999475479126,41227552
1749115627570653990,-1.75,6.1875,-2.25,9.829999923706056,0.6899999976158142,-1.600000023841858,9.619999885559082,0.8199999928474426,-1.659999966621399,41227570
1749115627596072957,0.1875,6.0,-2.375,10.0,0.7799999713897705,-1.5,9.630000114440918,0.8199999928474426,-1.6299999952316284,41227596
1749115627612825667,0.375,5.3125,0.0,9.979999542236328,1.0399999618530271,-1.2200000286102295,9.630000114440918,0.8199999928474426,-1.6100000143051147,41227612
1749115627637009209,-0.8125,4.8125,3.4375,9.710000038146973,0.9200000166893004,-1.2599999904632568,9.630000114440918,0.8199999928474426,-1.600000023841858,41227637
1749115627656729183,0.25,4.375,5.375,9.4399995803833,1.0499999523162842,-1.3799999952316284,9.640000343322754,0.800000011920929,-1.5800000429153442,41227656
1749115627683996052,0.0,3.875,6.75,9.0,1.1399999856948853,-1.4700000286102295,9.640000343322754,0.7799999713897705,-1.5700000524520874,41227683
1749115627701292044,-3.8125,2.625,7.8125,9.0,0.800000011920929,-1.5,9.649999618530272,0.75,-1.559999942779541,41227701
1749115627711270349,-1.9375,2.8125,6.25,9.270000457763672,0.3899999856948852,-1.7599999904632568,9.649999618530272,0.7300000190734863,-1.5499999523162842,41227711
1749115627731430543,5.4375,3.3125,2.75,9.489999771118164,0.550000011920929,-1.7799999713897705,9.649999618530272,0.7200000286102295,-1.5399999618530271,41227731
1749115627750156928,6.25,3.6875,0.4375,9.899999618530272,0.5400000214576721,-1.7799999713897705,9.649999618530272,0.7099999785423279,-1.5299999713897705,41227750
1749115627777097242,3.875,4.0625,-0.9375,10.199999809265137,0.3100000023841858,-1.7699999809265137,9.65999984741211,0.7099999785423279,-1.5199999809265137,41227777
1749115627792180100,3.25,4.1875,-1.25,10.25,0.4900000095367431,-1.4700000286102295,9.65999984741211,0.7200000286102295,-1.5099999904632568,41227792
1749115627811177403,3.625,4.625,0.3125,9.789999961853027,0.7300000190734863,-1.100000023841858,9.65999984741211,0.7099999785423279,-1.4900000095367432,41227811
1749115627833965740,5.75,5.625,0.3125,9.43000030517578,0.449999988079071,-1.3899999856948853,9.65999984741211,0.7099999785423279,-1.4800000190734863,41227833
1749115627856095993,8.8125,3.875,-0.6875,9.739999771118164,1.2300000190734863,-1.3300000429153442,9.65999984741211,0.7099999785423279,-1.4600000381469729,41227856
1749115627880132005,-0.4375,1.4375,1.375,9.890000343322754,1.0499999523162842,-1.0499999523162842,9.670000076293944,0.699999988079071,-1.4600000381469729,41227880
1749115627892057132,-7.6875,0.9375,3.125,9.770000457763672,0.6499999761581421,-1.1799999475479126,9.670000076293944,0.699999988079071,-1.4500000476837158,41227892
1749115627917849386,-6.125,1.9375,4.0,9.630000114440918,0.8600000143051147,-1.4299999475479126,9.670000076293944,0.6899999976158142,-1.4500000476837158,41227917
1749115627943057626,-4.0625,3.0625,5.8125,9.550000190734863,0.8999999761581421,-1.5700000524520874,9.670000076293944,0.6700000166893005,-1.440000057220459,41227943
1749115627951119488,-2.25,3.8125,8.4375,9.460000038146973,0.8299999833106995,-1.690000057220459,9.670000076293944,0.6499999761581421,-1.4199999570846558,41227951
1749115627984213570,-1.0625,4.5,10.4375,9.399999618530272,0.6800000071525574,-1.7300000190734863,9.68000030517578,0.6200000047683716,-1.409999966621399,41227984
1749115628004333568,0.4375,5.4375,10.0625,9.460000038146973,0.3300000131130218,-1.659999966621399,9.68000030517578,0.5799999833106995,-1.3899999856948853,41228004
1749115628010949153,2.375,6.125,8.0,9.399999618530272,0.3400000035762787,-1.649999976158142,9.6899995803833,0.5600000023841858,-1.3700000047683716,41228010
1749115628036150133,2.9375,5.375,5.375,9.40999984741211,0.4099999964237213,-1.4299999475479126,9.6899995803833,0.5299999713897705,-1.350000023841858,41228036
1749115628050860865,2.125,3.5625,3.75,9.739999771118164,0.5,-1.0499999523162842,9.6899995803833,0.5199999809265137,-1.340000033378601,41228050
1749115628071915739,0.6875,1.9375,2.75,9.949999809265137,0.4699999988079071,-0.8399999737739563,9.699999809265137,0.5099999904632568,-1.3300000429153442,41228071
1749115628099182295,0.25,1.375,1.5625,10.140000343322754,0.3000000119209289,-0.8399999737739563,9.699999809265137,0.5,-1.3300000429153442,41228099
1749115628119137477,0.125,1.4375,0.3125,9.989999771118164,0.1500000059604644,-0.9399999976158142,9.699999809265137,0.5,-1.3200000524520874,41228119
1749115628134030321,1.6875,1.1875,-2.0625,9.760000228881836,0.0399999991059303,-1.2799999713897705,9.699999809265137,0.5099999904632568,-1.3200000524520874,41228134
1749115628157081924,5.75,1.0,-5.5625,9.670000076293944,-0.1299999952316284,-1.659999966621399,9.699999809265137,0.5199999809265137,-1.3200000524520874,41228157
1749115628170838084,11.125,0.625,-9.5,9.800000190734863,-0.1199999973177909,-1.75,9.699999809265137,0.5400000214576721,-1.3200000524520874,41228170
1749115628194008347,17.3125,-0.0625,-12.6875,9.920000076293944,0.2000000029802322,-1.7300000190734863,9.6899995803833,0.5699999928474426,-1.3200000524520874,41228194
1749115628212767971,18.8125,0.1875,-14.9375,9.81999969482422,0.2000000029802322,-1.8200000524520876,9.6899995803833,0.6100000143051147,-1.3200000524520874,41228212
1749115628236942751,13.125,1.1875,-15.75,9.630000114440918,0.3600000143051147,-2.2799999713897705,9.6899995803833,0.6600000262260437,-1.3200000524520874,41228236
1749115628262209537,8.3125,-1.8125,-13.6875,9.710000038146973,0.6899999976158142,-2.3399999141693115,9.68000030517578,0.699999988079071,-1.3300000429153442,41228262
1749115628271155979,-0.0625,-5.3125,-11.6875,9.510000228881836,1.3200000524520874,-2.289999961853028,9.68000030517578,0.7400000095367432,-1.340000033378601,41228271
1749115628296878050,-11.125,-9.375,-11.375,9.510000228881836,0.5,-1.6399999856948853,9.670000076293944,0.7799999713897705,-1.3700000047683716,41228296
1749115628323628449,-13.4375,-11.75,-15.0625,9.710000038146973,0.3799999952316284,-0.9200000166893004,9.65999984741211,0.8299999833106995,-1.399999976158142,41228323
1749115628345244987,-12.5625,-8.75,-19.8125,9.9399995803833,0.1199999973177909,-0.2599999904632568,9.649999618530272,0.8999999761581421,-1.4299999475479126,41228345
1749115628369942697,-12.0625,-4.8125,-21.25,10.079999923706056,0.0299999993294477,-0.4000000059604645,9.640000343322754,0.9800000190734864,-1.4500000476837158,41228369
1749115628370105977,-8.375,-3.375,-20.5625,10.15999984741211,0.0199999995529651,-0.6800000071525574,9.630000114440918,1.0499999523162842,-1.4600000381469729,41228370
1749115628390046143,0.25,-1.4375,-18.5,10.050000190734863,-0.1899999976158142,-0.9100000262260436,9.630000114440918,1.1100000143051147,-1.4600000381469729,41228390
1749115628415820101,11.6875,-0.1875,-14.375,10.140000343322754,-0.3499999940395355,-1.0499999523162842,9.619999885559082,1.159999966621399,-1.4700000286102295,41228415
1749115628441803730,25.0625,1.25,-10.75,9.869999885559082,-0.3899999856948852,-1.1200000047683716,9.619999885559082,1.1799999475479126,-1.4700000286102295,41228441
1749115628450917654,36.5,1.5625,-7.4375,9.75,-0.1899999976158142,-1.1100000143051147,9.609999656677246,1.190000057220459,-1.4800000190734863,41228450
1749115628476816230,39.6875,1.4375,-2.375,9.539999961853027,-0.2800000011920929,-1.1799999475479126,9.609999656677246,1.190000057220459,-1.4900000095367432,41228476
1749115628501922607,39.125,0.125,2.6875,9.4399995803833,-0.3499999940395355,-1.3899999856948853,9.609999656677246,1.159999966621399,-1.5099999904632568,41228501
1749115628514929944,37.9375,-1.6875,7.75,9.420000076293944,-0.25,-1.590000033378601,9.619999885559082,1.1200000047683716,-1.5199999809265137,41228514
1749115628570269839,35.75,-2.625,13.875,9.510000228881836,-0.209999993443489,-1.6799999475479126,9.619999885559082,1.059999942779541,-1.5499999523162842,41228570
1749115628586341422,32.1875,-3.3125,21.1875,9.609999656677246,-0.2599999904632568,-1.6299999952316284,9.619999885559082,0.9800000190734864,-1.5700000524520874,41228586
1749115628590796460,27.75,-3.625,29.6875,9.699999809265137,-0.3799999952316284,-1.5700000524520874,9.640000343322754,0.8100000023841858,-1.590000033378601,41228590
1749115628596094081,25.0625,-2.8125,37.875,9.770000457763672,-0.4699999988079071,-1.559999942779541,9.649999618530272,0.6200000047683716,-1.6100000143051147,41228596
1749115628614321894,26.0625,-2.0,44.3125,9.670000076293944,-0.4799999892711639,-1.6699999570846558,9.65999984741211,0.4300000071525574,-1.6200000047683716,41228614
1749115628634051732,28.5625,-1.8125,50.375,9.449999809265137,-0.4099999964237213,-1.6299999952316284,9.65999984741211,0.2399999946355819,-1.6299999952316284,41228634
1749115628670313093,31.5,-2.75,56.8125,9.359999656677246,-0.209999993443489,-1.649999976158142,9.65999984741211,0.0399999991059303,-1.6399999856948853,41228670
1749115628680120750,35.5625,-3.625,62.5,9.40999984741211,-0.1400000005960464,-1.8899999856948853,9.65999984741211,-0.1700000017881393,-1.649999976158142,41228680
1749115628694805251,41.6875,-5.25,67.3125,9.649999618530272,-0.2199999988079071,-2.069999933242798,9.649999618530272,-0.4099999964237213,-1.659999966621399,41228694
1749115628721056776,48.25,-6.1875,69.6875,9.729999542236328,0.4699999988079071,-2.3499999046325684,9.630000114440918,-0.6600000262260437,-1.6699999570846558,41228721
1749115628731117247,52.8125,-7.0625,69.4375,9.4399995803833,0.5899999737739563,-2.619999885559082,9.609999656677246,-0.9200000166893004,-1.6799999475479126,41228731
1749115628751642442,64.6875,-11.625,63.875,9.130000114440918,1.0399999618530271,-2.720000028610229,9.579999923706056,-1.1699999570846558,-1.690000057220459,41228751
1749115628770805289,74.1875,-20.0625,55.1875,9.609999656677246,2.609999895095825,-2.289999961853028,9.550000190734863,-1.3899999856948853,-1.7200000286102295,41228770
1749115628791026412,72.5,-22.75,37.625,9.539999961853027,4.599999904632568,-1.440000057220459,9.510000228881836,-1.5700000524520874,-1.75,41228791
1749115628816182572,48.375,-17.6875,15.8125,9.010000228881836,4.159999847412109,-1.6100000143051147,9.489999771118164,-1.6799999475479126,-1.7799999713897705,41228816
1749115628832031405,37.5625,-17.625,-14.0625,8.420000076293945,3.740000009536743,-3.119999885559082,9.479999542236328,-1.6799999475479126,-1.8200000524520876,41228832
1749115628853781359,7.4375,-21.9375,-20.8125,7.519999980926514,-6.409999847412109,-3.490000009536743,9.479999542236328,-1.6200000047683716,-1.8799999952316284,41228853
1749115628873903003,26.1875,-36.5,-8.5,11.06999969482422,-6.079999923706055,0.0299999993294477,9.470000267028809,-1.600000023841858,-1.9700000286102293,41228873
1749115628900053009,-6.25,-22.6875,0.4375,11.260000228881836,-1.7699999809265137,0.6600000262260437,9.449999809265137,-1.590000033378601,-2.049999952316284,41228900
1749115628924097476,-14.5,-24.5625,-12.4375,10.479999542236328,0.4399999976158142,-3.259999990463257,9.4399995803833,-1.559999942779541,-2.140000104904175,41228924
1749115628931262610,3.125,-20.625,-43.4375,12.550000190734863,-4.269999980926514,0.8100000023841858,9.4399995803833,-1.440000057220459,-2.2100000381469727,41228931
1749115628950958660,35.5,-26.1875,-40.9375,10.140000343322754,0.8299999833106995,-2.1700000762939453,9.4399995803833,-1.3300000429153442,-2.2799999713897705,41228950
1749115628971277383,7.9375,-23.5,-39.4375,8.6899995803833,-2.4200000762939453,-3.240000009536743,9.4399995803833,-1.2100000381469729,-2.3499999046325684,41228971
1749115628996343182,24.3125,-24.0625,-39.5,9.010000228881836,-0.1800000071525573,-3.2799999713897705,9.43000030517578,-1.1100000143051147,-2.4200000762939453,41228996
1749115629023044561,19.4375,-21.3125,-35.125,9.550000190734863,0.0900000035762786,-2.809999942779541,9.43000030517578,-1.0099999904632568,-2.4800000190734863,41229023
1749115629030871183,12.875,-19.9375,-28.5625,9.960000038146973,-0.4699999988079071,-2.650000095367432,9.420000076293944,-0.9200000166893004,-2.539999961853028,41229030
1749115629064933438,15.5,-19.9375,-23.75,10.15999984741211,-0.1199999973177909,-2.369999885559082,9.40999984741211,-0.8600000143051147,-2.5999999046325684,41229064
1749115629101070816,15.3125,-19.8125,-20.625,9.859999656677246,-0.7599999904632568,-2.7100000381469727,9.399999618530272,-0.800000011920929,-2.6600000858306885,41229101
1749115629105779741,19.0625,-19.8125,-19.75,9.449999809265137,-0.800000011920929,-2.6700000762939453,9.390000343322754,-0.75,-2.720000028610229,41229105
1749115629113872976,21.25,-19.0,-19.75,9.550000190734863,-0.270000010728836,-2.930000066757202,9.369999885559082,-0.7099999785423279,-2.7699999809265137,41229113
1749115629131418248,17.0,-16.0625,-18.8125,9.619999885559082,-0.209999993443489,-2.740000009536743,9.359999656677246,-0.6700000166893005,-2.819999933242798,41229131
1749115629151687965,11.25,-14.375,-17.3125,9.489999771118164,-0.3199999928474426,-2.8399999141693115,9.350000381469728,-0.6200000047683716,-2.859999895095825,41229151
1749115629174798944,8.5625,-13.4375,-16.75,9.300000190734863,-0.2800000011920929,-2.8499999046325684,9.34000015258789,-0.5799999833106995,-2.900000095367432,41229174
1749115629195201210,6.6875,-12.1875,-16.875,9.220000267028809,-0.4099999964237213,-2.950000047683716,9.329999923706056,-0.5299999713897705,-2.940000057220459,41229195
1749115629214916348,6.5,-11.125,-17.3125,9.239999771118164,-0.2399999946355819,-3.049999952316284,9.31999969482422,-0.4799999892711639,-2.9800000190734863,41229214
1749115629241213015,6.375,-10.1875,-17.0625,9.279999732971191,-0.1500000059604644,-2.9800000190734863,9.31999969482422,-0.4300000071525574,-3.009999990463257,41229241
1749115629260046949,6.3125,-9.5,-15.5625,9.369999885559082,-0.0299999993294477,-3.009999990463257,9.3100004196167,-0.3899999856948852,-3.039999961853028,41229260
1749115629270704146,6.25,-9.0625,-13.0,9.479999542236328,0.2000000029802322,-2.950000047683716,9.300000190734863,-0.3499999940395355,-3.069999933242798,41229270
1749115629292126344,4.6875,-8.5,-9.3125,9.420000076293944,0.2199999988079071,-3.069999933242798,9.289999961853027,-0.3199999928474426,-3.0899999141693115,41229292
1749115629311241291,3.125,-8.0625,-5.1875,9.420000076293944,0.1700000017881393,-3.049999952316284,9.289999961853027,-0.3100000023841858,-3.119999885559082,41229311
1749115629335002523,2.4375,-7.5625,-1.1875,9.420000076293944,0.1599999964237213,-3.039999961853028,9.279999732971191,-0.2899999916553497,-3.140000104904175,41229335
1749115629352233311,2.9375,-7.4375,3.4375,9.350000381469728,0.3499999940395355,-3.0999999046325684,9.270000457763672,-0.2800000011920929,-3.1600000858306885,41229352
1749115629376162995,3.8125,-7.0625,9.375,9.270000457763672,0.3499999940395355,-3.200000047683716,9.270000457763672,-0.2800000011920929,-3.180000066757202,41229376
1749115629390838013,5.875,-6.0625,15.0625,9.350000381469728,0.25,-3.2799999713897705,9.260000228881836,-0.3100000023841858,-3.200000047683716,41229390
1749115629417325759,5.0,-5.1875,21.375,9.369999885559082,0.3300000131130218,-3.220000028610229,9.25,-0.3499999940395355,-3.2100000381469727,41229417
1749115629432147055,4.125,-5.1875,26.25,9.300000190734863,-0.1199999973177909,-3.2100000381469727,9.239999771118164,-0.4199999868869781,-3.2300000190734863,41229432
1749115629454033948,2.6875,-3.625,28.5,9.199999809265137,-0.4699999988079071,-3.2799999713897705,9.229999542236328,-0.5099999904632568,-3.240000009536743,41229454
1749115629479154374,1.9375,-3.0625,28.125,9.199999809265137,-0.9100000262260436,-3.200000047683716,9.229999542236328,-0.6000000238418579,-3.25,41229479
1749115629505256194,2.0,-2.125,23.5,9.1899995803833,-1.2899999618530271,-3.200000047683716,9.220000267028809,-0.6800000071525574,-3.259999990463257,41229505
1749115629513975240,0.6875,-0.3125,17.5625,9.119999885559082,-1.5399999618530271,-3.369999885559082,9.210000038146973,-0.7400000095367432,-3.259999990463257,41229513
1749115629538815434,1.8125,1.375,10.6875,9.100000381469728,-1.409999966621399,-3.220000028610229,9.210000038146973,-0.7799999713897705,-3.259999990463257,41229538
1749115629549880343,1.75,2.1875,5.6875,9.140000343322754,-1.2999999523162842,-3.25,9.210000038146973,-0.800000011920929,-3.25,41229549
1749115629576203371,1.5,2.25,2.9375,9.260000228881836,-1.0,-3.309999942779541,9.210000038146973,-0.8199999928474426,-3.240000009536743,41229576
1749115629590926146,0.8125,2.8125,1.875,9.270000457763672,-0.800000011920929,-3.2300000190734863,9.210000038146973,-0.8199999928474426,-3.2300000190734863,41229590
1749115629617002767,-1.25,2.875,2.375,9.229999542236328,-0.7900000214576721,-3.2100000381469727,9.220000267028809,-0.8299999833106995,-3.2300000190734863,41229617
1749115629642155296,-2.0,2.8125,2.75,9.220000267028809,-0.9200000166893004,-3.190000057220459,9.220000267028809,-0.8399999737739563,-3.220000028610229,41229642
1749115629652043282,-1.8125,2.8125,2.75,9.270000457763672,-0.8799999952316284,-3.0999999046325684,9.220000267028809,-0.8399999737739563,-3.2100000381469727,41229652
1749115629671088866,-1.875,2.6875,3.0,9.25,-0.8700000047683716,-3.109999895095825,9.220000267028809,-0.8500000238418579,-3.200000047683716,41229671
1749115629696979168,-1.75,2.4375,3.25,9.170000076293944,-0.8700000047683716,-3.150000095367432,9.229999542236328,-0.8600000143051147,-3.190000057220459,41229696
1749115629719950007,-0.5625,2.0,3.5625,9.229999542236328,-0.8500000238418579,-3.1700000762939453,9.229999542236328,-0.8700000047683716,-3.190000057220459,41229719
1749115629737769189,-0.75,1.875,4.4375,9.289999961853027,-0.7799999713897705,-3.150000095367432,9.229999542236328,-0.8799999952316284,-3.180000066757202,41229737
1749115629761123644,-2.0,2.25,5.1875,9.260000228881836,-0.8299999833106995,-3.1600000858306885,9.229999542236328,-0.8999999761581421,-3.1700000762939453,41229761
1749115629771987898,-0.9375,2.4375,5.3125,9.289999961853027,-1.090000033378601,-3.25,9.229999542236328,-0.9100000262260436,-3.1700000762939453,41229771
1749115629792093724,0.125,2.875,4.5,9.289999961853027,-1.100000023841858,-3.130000114440918,9.229999542236328,-0.9300000071525574,-3.1600000858306885,41229792
1749115629864087391,0.5625,3.3125,3.4375,9.300000190734863,-1.1299999952316284,-3.130000114440918,9.229999542236328,-0.9399999976158142,-3.150000095367432,41229864
1749115629889013490,1.5625,3.4375,2.25,9.25,-1.0299999713897705,-3.119999885559082,9.239999771118164,-0.949999988079071,-3.140000104904175,41229889
1749115629904983803,1.0625,4.0,1.875,9.279999732971191,-0.9700000286102296,-3.259999990463257,9.239999771118164,-0.959999978542328,-3.119999885559082,41229904
1749115629914701280,-1.875,5.0625,2.4375,9.350000381469728,-0.7400000095367432,-3.0799999237060547,9.239999771118164,-0.959999978542328,-3.109999895095825,41229914
1749115629944089277,-6.375,6.125,3.5,9.220000267028809,-0.9300000071525574,-3.200000047683716,9.25,-0.9700000286102296,-3.0899999141693115,41229944
1749115629944255848,-7.75,6.875,3.0,9.369999885559082,-1.0299999713897705,-3.009999990463257,9.25,-0.9700000286102296,-3.069999933242798,41229944
1749115629947818456,-9.0625,8.1875,1.75,9.31999969482422,-1.2899999618530271,-3.2300000190734863,9.260000228881836,-0.959999978542328,-3.049999952316284,41229947
1749115629956068693,-7.25,8.4375,-0.5,9.539999961853027,-1.309999942779541,-2.880000114440918,9.270000457763672,-0.959999978542328,-3.0299999713897705,41229956
1749115629977170964,-6.25,9.375,-2.0625,9.1899995803833,-0.9800000190734864,-3.119999885559082,9.279999732971191,-0.949999988079071,-3.0,41229977
1749115629991062862,-8.3125,10.5625,-3.0625,9.229999542236328,-1.090000033378601,-2.970000028610229,9.289999961853027,-0.9300000071525574,-2.970000028610229,41229991
1749115630016898554,-8.5625,11.5,-3.375,9.119999885559082,-0.8199999928474426,-2.970000028610229,9.300000190734863,-0.9100000262260436,-2.940000057220459,41230016
1749115630038572498,-10.1875,11.3125,-2.0625,9.1899995803833,-0.6700000166893005,-2.75,9.31999969482422,-0.8899999856948853,-2.9100000858306885,41230038
1749115630059827193,-11.25,10.75,0.25,9.109999656677246,-0.8199999928474426,-2.75,9.329999923706056,-0.8799999952316284,-2.880000114440918,41230059
1749115630072121247,-8.25,9.125,1.5,9.479999542236328,-0.949999988079071,-2.6600000858306885,9.34000015258789,-0.8799999952316284,-2.8499999046325684,41230072
1749115630091769254,-3.3125,7.8125,2.6875,9.539999961853027,-0.8199999928474426,-2.7300000190734863,9.34000015258789,-0.8799999952316284,-2.819999933242798,41230091
1749115630124309524,-3.625,7.5625,3.875,9.529999732971191,-0.7099999785423279,-2.759999990463257,9.350000381469728,-0.8899999856948853,-2.799999952316284,41230124
1749115630132131552,-7.6875,8.0625,4.9375,9.399999618530272,-0.8199999928474426,-2.789999961853028,9.359999656677246,-0.8999999761581421,-2.7799999713897705,41230132
1749115630152180019,-10.0,7.9375,5.125,9.279999732971191,-1.0099999904632568,-2.609999895095825,9.359999656677246,-0.8999999761581421,-2.759999990463257,41230152
1749115630177880525,-9.125,7.5,4.125,9.25,-1.2100000381469729,-2.630000114440918,9.369999885559082,-0.9100000262260436,-2.7300000190734863,41230177
1749115630190780965,-6.8125,6.5625,2.75,9.25,-1.0499999523162842,-2.640000104904175,9.369999885559082,-0.9100000262260436,-2.7100000381469727,41230190
1749115630215776585,-5.9375,5.75,1.875,9.279999732971191,-1.059999942779541,-2.619999885559082,9.380000114440918,-0.9100000262260436,-2.700000047683716,41230215
1749115630231976603,-4.1875,4.75,0.6875,9.300000190734863,-1.1100000143051147,-2.609999895095825,9.380000114440918,-0.9100000262260436,-2.680000066757202,41230231
1749115630254044964,-1.9375,4.0625,-0.375,9.369999885559082,-0.9700000286102296,-2.5799999237060547,9.390000343322754,-0.9100000262260436,-2.6700000762939453,41230254
1749115630274291019,-1.5625,3.375,-0.625,9.40999984741211,-0.949999988079071,-2.569999933242798,9.390000343322754,-0.9100000262260436,-2.6600000858306885,41230274
1749115630300956746,-1.5625,2.9375,-0.6875,9.489999771118164,-0.9399999976158142,-2.559999942779541,9.390000343322754,-0.9100000262260436,-2.650000095367432,41230300
1749115630313841831,-1.0625,2.3125,-0.75,9.369999885559082,-1.0,-2.490000009536743,9.390000343322754,-0.9100000262260436,-2.640000104904175,41230313
1749115630334878737,0.75,1.25,-1.25,9.300000190734863,-1.0399999618530271,-2.5,9.399999618530272,-0.8999999761581421,-2.630000114440918,41230334
1749115630360184641,3.6875,-0.125,-1.75,9.369999885559082,-0.959999978542328,-2.549999952316284,9.399999618530272,-0.8999999761581421,-2.630000114440918,41230360
1749115630371087720,4.125,-0.625,-2.0,9.40999984741211,-0.949999988079071,-2.549999952316284,9.399999618530272,-0.8999999761581421,-2.630000114440918,41230371
1749115630395056724,2.9375,-0.8125,-1.9375,9.399999618530272,-0.8700000047683716,-2.5999999046325684,9.399999618530272,-0.8999999761581421,-2.630000114440918,41230395
1749115630411331292,3.5625,-1.4375,-1.5,9.40999984741211,-0.8199999928474426,-2.5899999141693115,9.399999618530272,-0.8899999856948853,-2.640000104904175,41230411
1749115630436965029,4.0625,-1.9375,-0.875,9.479999542236328,-0.7699999809265137,-2.5199999809265137,9.399999618530272,-0.8899999856948853,-2.640000104904175,41230436
1749115630452989729,2.4375,-1.75,0.4375,9.470000267028809,-0.8399999737739563,-2.5899999141693115,9.390000343322754,-0.8999999761581421,-2.640000104904175,41230452
1749115630478944115,2.0625,-1.625,1.1875,9.4399995803833,-0.8899999856948853,-2.6700000762939453,9.390000343322754,-0.8999999761581421,-2.650000095367432,41230478
1749115630493977977,2.125,-1.375,1.5625,9.520000457763672,-0.8700000047683716,-2.619999885559082,9.390000343322754,-0.9100000262260436,-2.650000095367432,41230493
1749115630511705755,1.9375,-1.125,2.25,9.380000114440918,-0.9200000166893004,-2.7300000190734863,9.390000343322754,-0.9200000166893004,-2.650000095367432,41230511
1749115630536933387,1.4375,-0.375,2.0625,9.3100004196167,-1.0199999809265137,-2.759999990463257,9.390000343322754,-0.9200000166893004,-2.650000095367432,41230536
1749115630556399639,0.875,0.25,0.9375,9.399999618530272,-1.0499999523162842,-2.7300000190734863,9.390000343322754,-0.9300000071525574,-2.650000095367432,41230556
1749115630574851633,-0.6875,1.0,-0.5,9.420000076293944,-1.1299999952316284,-2.690000057220459,9.390000343322754,-0.9300000071525574,-2.650000095367432,41230574
1749115630590218825,-1.6875,1.375,-1.875,9.359999656677246,-1.0700000524520874,-2.5999999046325684,9.390000343322754,-0.9300000071525574,-2.650000095367432,41230590
1749115630618179255,-1.25,1.375,-2.6875,9.40999984741211,-0.9800000190734864,-2.5199999809265137,9.390000343322754,-0.9200000166893004,-2.640000104904175,41230618
1749115630641953901,-0.125,1.375,-3.0625,9.460000038146973,-0.9399999976158142,-2.549999952316284,9.390000343322754,-0.9100000262260436,-2.640000104904175,41230641
1749115630651024520,-1.1875,1.375,-2.5625,9.43000030517578,-0.8399999737739563,-2.630000114440918,9.399999618530272,-0.8999999761581421,-2.640000104904175,41230651
1749115630675894799,-2.9375,1.8125,-1.5625,9.43000030517578,-0.7099999785423279,-2.559999942779541,9.399999618530272,-0.8899999856948853,-2.630000114440918,41230675
1749115630694020385,-5.3125,2.0625,0.1875,9.489999771118164,-0.7200000286102295,-2.619999885559082,9.399999618530272,-0.8799999952316284,-2.619999885559082,41230694
1749115630714936696,-7.0,2.5625,1.6875,9.5,-0.7200000286102295,-2.5899999141693115,9.399999618530272,-0.8799999952316284,-2.619999885559082,41230714
1749115630741011882,-8.5,2.75,3.1875,9.369999885559082,-0.6899999976158142,-2.5799999237060547,9.399999618530272,-0.8799999952316284,-2.609999895095825,41230741
1749115630753823335,-9.5625,2.9375,4.25,9.40999984741211,-0.9200000166893004,-2.5899999141693115,9.40999984741211,-0.8799999952316284,-2.5999999046325684,41230753
1749115630771974481,-8.8125,3.125,4.4375,9.470000267028809,-0.9399999976158142,-2.559999942779541,9.40999984741211,-0.8899999856948853,-2.5999999046325684,41230771
1749115630793921999,-8.625,3.1875,4.25,9.5,-1.0800000429153442,-2.609999895095825,9.40999984741211,-0.8999999761581421,-2.5899999141693115,41230793
1749115630811185909,-7.75,3.0625,3.3125,9.479999542236328,-1.1200000047683716,-2.559999942779541,9.40999984741211,-0.8999999761581421,-2.5799999237060547,41230811
1749115630833847744,-6.625,2.8125,2.1875,9.40999984741211,-1.1100000143051147,-2.4600000381469727,9.40999984741211,-0.9100000262260436,-2.569999933242798,41230833
1749115630858932253,-5.4375,2.3125,0.75,9.3100004196167,-1.2100000381469729,-2.490000009536743,9.40999984741211,-0.9100000262260436,-2.569999933242798,41230858
1749115630881802472,-3.0,1.25,-0.6875,9.329999923706056,-1.1100000143051147,-2.5199999809265137,9.420000076293944,-0.9100000262260436,-2.559999942779541,41230881
1749115630891205693,-1.9375,0.8125,-1.75,9.289999961853027,-1.0800000429153442,-2.539999961853028,9.420000076293944,-0.8999999761581421,-2.559999942779541,41230891
1749115630912107393,0.75,-0.0625,-3.125,9.40999984741211,-1.1100000143051147,-2.4800000190734863,9.420000076293944,-0.8999999761581421,-2.559999942779541,41230912
1749115630937090324,4.125,-1.0,-4.4375,9.550000190734863,-1.0199999809265137,-2.5299999713897705,9.420000076293944,-0.8899999856948853,-2.559999942779541,41230937
1749115630955146929,6.6875,-1.4375,-5.625,9.489999771118164,-1.059999942779541,-2.5799999237060547,9.420000076293944,-0.8799999952316284,-2.559999942779541,41230955
1749115630976190409,7.125,-1.5625,-6.625,9.40999984741211,-1.0,-2.640000104904175,9.420000076293944,-0.8700000047683716,-2.559999942779541,41230976
1749115630992018820,7.875,-1.375,-8.1875,9.350000381469728,-1.0800000429153442,-2.5999999046325684,9.420000076293944,-0.8500000238418579,-2.569999933242798,41230992
1749115631017737935,8.875,-1.5625,-9.875,9.3100004196167,-0.959999978542328,-2.569999933242798,9.420000076293944,-0.8299999833106995,-2.569999933242798,41231017
1749115631030991057,9.5625,-1.5,-11.6875,9.359999656677246,-1.0,-2.569999933242798,9.420000076293944,-0.8100000023841858,-2.569999933242798,41231030
1749115631054883316,10.4375,-1.6875,-13.1875,9.350000381469728,-0.8500000238418579,-2.559999942779541,9.420000076293944,-0.7799999713897705,-2.569999933242798,41231054
1749115631080053511,9.375,-1.3125,-13.625,9.4399995803833,-0.5799999833106995,-2.609999895095825,9.43000030517578,-0.7400000095367432,-2.5799999237060547,41231080
1749115631128228614,8.4375,-1.0,-13.3125,9.460000038146973,-0.5099999904632568,-2.619999885559082,9.43000030517578,-0.7099999785423279,-2.5799999237060547,41231128
1749115631141142397,5.25,-0.125,-12.3125,9.5,-0.4699999988079071,-2.5999999046325684,9.43000030517578,-0.6700000166893005,-2.5799999237060547,41231141
1749115631147688180,2.625,0.4375,-11.25,9.510000228881836,-0.4900000095367431,-2.5199999809265137,9.43000030517578,-0.6399999856948853,-2.5799999237060547,41231147
1749115631170220681,1.75,0.6875,-10.5625,9.460000038146973,-0.3700000047683716,-2.5199999809265137,9.4399995803833,-0.6000000238418579,-2.569999933242798,41231170
1749115631175806326,-0.375,0.8125,-9.0,9.510000228881836,-0.3499999940395355,-2.5,9.4399995803833,-0.5699999928474426,-2.569999933242798,41231175
1749115631196121315,-2.0625,0.9375,-6.8125,9.489999771118164,-0.3300000131130218,-2.490000009536743,9.4399995803833,-0.5400000214576721,-2.569999933242798,41231196
1749115631230961830,-3.0,0.75,-4.625,9.470000267028809,-0.25,-2.509999990463257,9.4399995803833,-0.5199999809265137,-2.559999942779541,41231230
1749115631241030246,-3.9375,0.8125,-1.9375,9.479999542236328,-0.25,-2.539999961853028,9.449999809265137,-0.5,-2.559999942779541,41231241
1749115631254818841,-5.1875,1.0,0.6875,9.520000457763672,-0.2800000011920929,-2.539999961853028,9.449999809265137,-0.5,-2.559999942779541,41231254
1749115631281978973,-5.875,1.25,3.0625,9.550000190734863,-0.3600000143051147,-2.4800000190734863,9.449999809265137,-0.5,-2.549999952316284,41231281
1749115631291087267,-6.5,1.25,4.5625,9.539999961853027,-0.4399999976158142,-2.549999952316284,9.449999809265137,-0.5,-2.549999952316284,41231291
1749115631316420483,-7.0,1.5625,5.8125,9.479999542236328,-0.550000011920929,-2.549999952316284,9.449999809265137,-0.5199999809265137,-2.549999952316284,41231316
1749115631360215039,-7.9375,1.5,6.3125,9.40999984741211,-0.7599999904632568,-2.5,9.449999809265137,-0.5299999713897705,-2.539999961853028,41231360
1749115631365972701,-7.3125,1.4375,5.5625,9.420000076293944,-0.8100000023841858,-2.509999990463257,9.449999809265137,-0.5400000214576721,-2.539999961853028,41231365
1749115631374270304,-5.25,0.875,4.3125,9.380000114440918,-0.8899999856948853,-2.5199999809265137,9.449999809265137,-0.550000011920929,-2.539999961853028,41231374
1749115631392130842,-3.375,0.5625,2.5,9.40999984741211,-0.8700000047683716,-2.5299999713897705,9.449999809265137,-0.5600000023841858,-2.539999961853028,41231392
1749115631415720148,-1.9375,0.25,1.0,9.470000267028809,-0.7400000095367432,-2.5199999809265137,9.449999809265137,-0.5699999928474426,-2.539999961853028,41231415
1749115631432000820,-1.625,0.1875,0.0,9.460000038146973,-0.6700000166893005,-2.509999990463257,9.449999809265137,-0.5699999928474426,-2.539999961853028,41231432
1749115631457089394,-1.0625,0.125,-0.6875,9.449999809265137,-0.5699999928474426,-2.509999990463257,9.449999809265137,-0.5699999928474426,-2.539999961853028,41231457
1749115631477221149,-1.375,0.125,-1.0,9.470000267028809,-0.5899999737739563,-2.5299999713897705,9.449999809265137,-0.5600000023841858,-2.539999961853028,41231477
1749115631500066598,-1.125,0.25,-0.875,9.489999771118164,-0.5799999833106995,-2.549999952316284,9.449999809265137,-0.5600000023841858,-2.539999961853028,41231500
1749115631511385161,-0.6875,0.1875,-0.875,9.489999771118164,-0.6000000238418579,-2.5199999809265137,9.449999809265137,-0.5600000023841858,-2.539999961853028,41231511
1749115631531905684,-0.5625,0.375,-1.125,9.449999809265137,-0.6399999856948853,-2.5199999809265137,9.449999809265137,-0.550000011920929,-2.539999961853028,41231531
1749115631554019718,0.125,0.4375,-1.875,9.420000076293944,-0.6700000166893005,-2.539999961853028,9.449999809265137,-0.550000011920929,-2.539999961853028,41231554
1749115631573307340,0.75,0.3125,-2.875,9.399999618530272,-0.6700000166893005,-2.5,9.449999809265137,-0.5400000214576721,-2.539999961853028,41231573
1749115631589955069,1.5625,0.1875,-3.4375,9.390000343322754,-0.6499999761581421,-2.490000009536743,9.449999809265137,-0.5299999713897705,-2.539999961853028,41231589
1749115631615356735,2.1875,-0.0625,-4.375,9.43000030517578,-0.6399999856948853,-2.5,9.449999809265137,-0.5199999809265137,-2.539999961853028,41231615
1749115631631177285,3.0,-0.125,-4.875,9.489999771118164,-0.5799999833106995,-2.5199999809265137,9.449999809265137,-0.5099999904632568,-2.539999961853028,41231631
1749115631651044984,2.625,-0.125,-5.375,9.470000267028809,-0.4699999988079071,-2.509999990463257,9.449999809265137,-0.5,-2.539999961853028,41231651
1749115631672203592,1.9375,-0.125,-5.1875,9.449999809265137,-0.5099999904632568,-2.5199999809265137,9.449999809265137,-0.4799999892711639,-2.539999961853028,41231672
1749115631691046625,2.0,-0.25,-5.125,9.489999771118164,-0.5,-2.5,9.460000038146973,-0.4699999988079071,-2.539999961853028,41231691
1749115631718694203,2.0,-0.3125,-4.75,9.470000267028809,-0.3799999952316284,-2.509999990463257,9.460000038146973,-0.449999988079071,-2.5299999713897705,41231718
1749115631730927628,1.375,0.0,-4.375,9.460000038146973,-0.4300000071525574,-2.5299999713897705,9.460000038146973,-0.4399999976158142,-2.5299999713897705,41231730
1749115631754978300,1.0625,0.0,-3.875,9.470000267028809,-0.4000000059604645,-2.539999961853028,9.460000038146973,-0.4300000071525574,-2.5299999713897705,41231754
1749115631769900550,0.3125,0.0625,-3.25,9.5,-0.3499999940395355,-2.509999990463257,9.460000038146973,-0.4199999868869781,-2.5299999713897705,41231769
1749115631790746224,-0.0625,0.1875,-2.5,9.470000267028809,-0.3499999940395355,-2.4600000381469727,9.460000038146973,-0.4099999964237213,-2.5299999713897705,41231790
1749115631815859429,-0.625,0.1875,-1.875,9.460000038146973,-0.3499999940395355,-2.4800000190734863,9.460000038146973,-0.4000000059604645,-2.5299999713897705,41231815
1749115631859312203,-1.125,0.25,-1.0625,9.510000228881836,-0.3400000035762787,-2.4800000190734863,9.460000038146973,-0.4000000059604645,-2.5299999713897705,41231859
1749115631876162661,-1.875,0.0625,-0.3125,9.5,-0.2800000011920929,-2.490000009536743,9.460000038146973,-0.3899999856948852,-2.5299999713897705,41231876
1749115631880149420,-3.0625,0.1875,0.6875,9.479999542236328,-0.3199999928474426,-2.5,9.460000038146973,-0.3899999856948852,-2.5299999713897705,41231880
1749115631916206205,-3.9375,0.3125,1.8125,9.489999771118164,-0.3300000131130218,-2.450000047683716,9.460000038146973,-0.3899999856948852,-2.5299999713897705,41231916
1749115631928954574,-4.6875,0.125,2.5,9.479999542236328,-0.3199999928474426,-2.4600000381469727,9.460000038146973,-0.3899999856948852,-2.5299999713897705,41231928
1749115631939135182,-5.5625,0.0,3.25,9.460000038146973,-0.4199999868869781,-2.4600000381469727,9.460000038146973,-0.4000000059604645,-2.5299999713897705,41231939
1749115631953147946,-5.5,-0.375,3.5625,9.460000038146973,-0.4399999976158142,-2.5,9.460000038146973,-0.4099999964237213,-2.5299999713897705,41231953
1749115631975999132,-5.375,-0.5625,3.75,9.449999809265137,-0.4600000083446502,-2.4800000190734863,9.460000038146973,-0.4099999964237213,-2.539999961853028,41231975
1749115631991020266,-5.4375,-1.0,3.8125,9.43000030517578,-0.5299999713897705,-2.4800000190734863,9.460000038146973,-0.4199999868869781,-2.539999961853028,41231991
1749115632017074165,-4.9375,-1.3125,3.4375,9.460000038146973,-0.5799999833106995,-2.4600000381469727,9.449999809265137,-0.4300000071525574,-2.539999961853028,41232017
1749115632031009542,-3.75,-1.6875,2.9375,9.470000267028809,-0.6100000143051147,-2.4600000381469727,9.449999809265137,-0.4399999976158142,-2.549999952316284,41232031
1749115632058030279,-2.3125,-2.0625,2.5625,9.479999542236328,-0.550000011920929,-2.5299999713897705,9.449999809265137,-0.4399999976158142,-2.549999952316284,41232058
1749115632071752378,-1.8125,-2.25,1.8125,9.4399995803833,-0.6800000071525574,-2.539999961853028,9.449999809265137,-0.449999988079071,-2.559999942779541,41232071
1749115632094732239,-0.625,-2.625,0.9375,9.449999809265137,-0.6000000238418579,-2.539999961853028,9.449999809265137,-0.4600000083446502,-2.569999933242798,41232094
1749115632117181964,0.4375,-2.875,0.1875,9.40999984741211,-0.6200000047683716,-2.559999942779541,9.4399995803833,-0.4600000083446502,-2.5799999237060547,41232117
1749115632141059843,1.3125,-3.0,-0.5,9.4399995803833,-0.5699999928474426,-2.559999942779541,9.4399995803833,-0.4600000083446502,-2.5899999141693115,41232141
1749115632153487364,2.375,-3.125,-0.9375,9.449999809265137,-0.4900000095367431,-2.5999999046325684,9.4399995803833,-0.4600000083446502,-2.5999999046325684,41232153
1749115632179980548,2.5,-3.25,-1.0625,9.489999771118164,-0.5099999904632568,-2.569999933242798,9.4399995803833,-0.4600000083446502,-2.609999895095825,41232179
1749115632191734225,3.0625,-3.375,-0.9375,9.479999542236328,-0.4399999976158142,-2.569999933242798,9.43000030517578,-0.4600000083446502,-2.619999885559082,41232191
1749115632217803784,3.0,-3.1875,-0.8125,9.470000267028809,-0.3899999856948852,-2.609999895095825,9.43000030517578,-0.4600000083446502,-2.630000114440918,41232217
1749115632239143266,3.0,-3.125,0.0,9.420000076293944,-0.3700000047683716,-2.6700000762939453,9.43000030517578,-0.4600000083446502,-2.640000104904175,41232239
1749115632261752518,1.875,-2.6875,0.875,9.43000030517578,-0.4300000071525574,-2.690000057220459,9.43000030517578,-0.4600000083446502,-2.650000095367432,41232261
1749115632271008166,1.4375,-2.5,1.1875,9.43000030517578,-0.5,-2.630000114440918,9.420000076293944,-0.4699999988079071,-2.650000095367432,41232271
1749115632295273546,1.5,-2.4375,1.125,9.43000030517578,-0.5400000214576721,-2.619999885559082,9.420000076293944,-0.4699999988079071,-2.6600000858306885,41232295
1749115632316917971,1.6875,-2.625,0.9375,9.449999809265137,-0.550000011920929,-2.6600000858306885,9.420000076293944,-0.4799999892711639,-2.6700000762939453,41232316
1749115632339901167,1.625,-2.4375,0.5625,9.420000076293944,-0.6100000143051147,-2.650000095367432,9.420000076293944,-0.4799999892711639,-2.680000066757202,41232339
1749115632353803954,2.125,-2.5625,0.0625,9.390000343322754,-0.550000011920929,-2.700000047683716,9.40999984741211,-0.4799999892711639,-2.680000066757202,41232353
1749115632412358133,2.0,-2.4375,-0.125,9.390000343322754,-0.5400000214576721,-2.640000104904175,9.40999984741211,-0.4799999892711639,-2.690000057220459,41232412
1749115632435759895,1.8125,-2.5,0.125,9.420000076293944,-0.5,-2.6600000858306885,9.40999984741211,-0.4900000095367431,-2.700000047683716,41232435
1749115632440795135,1.625,-2.5625,0.3125,9.43000030517578,-0.4399999976158142,-2.6700000762939453,9.40999984741211,-0.4900000095367431,-2.7100000381469727,41232440
1749115632446140980,1.5,-2.5625,0.875,9.449999809265137,-0.4399999976158142,-2.7100000381469727,9.399999618530272,-0.4900000095367431,-2.7100000381469727,41232446
1749115632463355603,1.0,-2.3125,1.5,9.460000038146973,-0.4199999868869781,-2.7300000190734863,9.399999618530272,-0.5,-2.720000028610229,41232463
1749115632470941984,0.3125,-2.1875,2.0625,9.4399995803833,-0.4399999976158142,-2.7300000190734863,9.399999618530272,-0.5,-2.7300000190734863,41232470
1749115632497799944,-0.625,-1.8125,2.625,9.4399995803833,-0.550000011920929,-2.720000028610229,9.399999618530272,-0.5099999904632568,-2.740000009536743,41232497
1749115632510915437,-0.8125,-1.75,3.0,9.420000076293944,-0.5600000023841858,-2.7300000190734863,9.390000343322754,-0.5199999809265137,-2.740000009536743,41232510
1749115632536140748,-1.1875,-1.5,3.25,9.420000076293944,-0.5600000023841858,-2.7699999809265137,9.390000343322754,-0.5299999713897705,-2.75,41232536
1749115632551053138,-1.75,-1.0625,3.3125,9.40999984741211,-0.6700000166893005,-2.75,9.390000343322754,-0.5400000214576721,-2.75,41232551
1749115632572353140,-1.4375,-1.0,2.6875,9.390000343322754,-0.6600000262260437,-2.740000009536743,9.390000343322754,-0.550000011920929,-2.75,41232572
1749115632594001466,-1.0625,-0.6875,2.3125,9.380000114440918,-0.6600000262260437,-2.7699999809265137,9.390000343322754,-0.550000011920929,-2.759999990463257,41232594
1749115632613253774,-1.4375,-0.5,1.6875,9.390000343322754,-0.7699999809265137,-2.799999952316284,9.390000343322754,-0.5600000023841858,-2.759999990463257,41232613
1749115632631026186,-0.4375,-0.4375,1.0625,9.390000343322754,-0.6499999761581421,-2.75,9.390000343322754,-0.5600000023841858,-2.759999990463257,41232631
1749115632653684959,-0.3125,-0.25,0.75,9.40999984741211,-0.6200000047683716,-2.799999952316284,9.390000343322754,-0.5600000023841858,-2.759999990463257,41232653
1749115632671242746,-0.25,-0.125,0.3125,9.40999984741211,-0.6399999856948853,-2.75,9.390000343322754,-0.5600000023841858,-2.759999990463257,41232671
1749115632690767808,0.0,0.0,0.125,9.399999618530272,-0.6000000238418579,-2.75,9.390000343322754,-0.5600000023841858,-2.759999990463257,41232690
1749115632711840477,-0.0625,0.125,0.0,9.390000343322754,-0.6200000047683716,-2.75,9.390000343322754,-0.5600000023841858,-2.759999990463257,41232711
1749115632737303363,0.0,0.25,-0.0625,9.390000343322754,-0.6200000047683716,-2.75,9.390000343322754,-0.5600000023841858,-2.759999990463257,41232737
1749115632751151147,0.0625,0.5,-0.1875,9.390000343322754,-0.6299999952316284,-2.759999990463257,9.390000343322754,-0.5600000023841858,-2.759999990463257,41232751
1749115632776875987,0.1875,0.5625,-0.3125,9.390000343322754,-0.6200000047683716,-2.740000009536743,9.390000343322754,-0.5600000023841858,-2.759999990463257,41232776
1749115632796908103,0.25,0.6875,-0.5,9.399999618530272,-0.6000000238418579,-2.7799999713897705,9.390000343322754,-0.5600000023841858,-2.759999990463257,41232796
1749115632824920082,0.125,0.75,-0.3125,9.399999618530272,-0.6000000238418579,-2.7300000190734863,9.390000343322754,-0.5600000023841858,-2.75,41232824
1749115632834383069,0.1875,0.8125,-0.125,9.40999984741211,-0.5799999833106995,-2.720000028610229,9.390000343322754,-0.5600000023841858,-2.75,41232834
1749115632856021667,0.3125,0.875,-0.125,9.40999984741211,-0.5699999928474426,-2.75,9.390000343322754,-0.5600000023841858,-2.75,41232856
1749115632877249738,0.125,0.9375,0.0,9.399999618530272,-0.6100000143051147,-2.7100000381469727,9.390000343322754,-0.5600000023841858,-2.75,41232877
1749115632899409361,0.25,0.9375,0.0,9.420000076293944,-0.6000000238418579,-2.700000047683716,9.390000343322754,-0.5600000023841858,-2.740000009536743,41232899
1749115632911167160,0.3125,1.0,0.125,9.420000076293944,-0.6000000238418579,-2.720000028610229,9.390000343322754,-0.5600000023841858,-2.740000009536743,41232911
1749115632935728033,0.4375,0.8125,0.0,9.399999618530272,-0.550000011920929,-2.690000057220459,9.390000343322754,-0.5600000023841858,-2.740000009536743,41232935
1749115632952329376,0.125,1.125,0.25,9.369999885559082,-0.5699999928474426,-2.7300000190734863,9.390000343322754,-0.5600000023841858,-2.7300000190734863,41232952
1749115632976164438,-0.1875,1.0625,0.3125,9.380000114440918,-0.5899999737739563,-2.680000066757202,9.399999618530272,-0.5600000023841858,-2.7300000190734863,41232976
1749115633000164999,-0.375,0.875,0.25,9.40999984741211,-0.6399999856948853,-2.7100000381469727,9.399999618530272,-0.5600000023841858,-2.7300000190734863,41233000
1749115633011072161,-0.3125,0.875,0.125,9.420000076293944,-0.6100000143051147,-2.700000047683716,9.399999618530272,-0.5600000023841858,-2.720000028610229,41233011
1749115633037081662,-0.125,0.875,0.0625,9.420000076293944,-0.5799999833106995,-2.740000009536743,9.399999618530272,-0.5600000023841858,-2.720000028610229,41233037
1749115633059852383,-0.5,1.0625,0.125,9.369999885559082,-0.5600000023841858,-2.690000057220459,9.399999618530272,-0.5600000023841858,-2.720000028610229,41233059
1749115633074181477,-0.6875,1.0,0.1875,9.40999984741211,-0.6000000238418579,-2.6600000858306885,9.399999618530272,-0.5600000023841858,-2.7100000381469727,41233074
1749115633097182815,-0.8125,1.125,0.375,9.380000114440918,-0.550000011920929,-2.680000066757202,9.399999618530272,-0.5600000023841858,-2.7100000381469727,41233097
1749115633111764054,-0.6875,1.0625,0.6875,9.40999984741211,-0.5699999928474426,-2.7100000381469727,9.399999618530272,-0.5600000023841858,-2.7100000381469727,41233111
1749115633132068055,-0.6875,0.8125,0.9375,9.43000030517578,-0.6200000047683716,-2.680000066757202,9.399999618530272,-0.5600000023841858,-2.7100000381469727,41233132
1749115633155222830,-0.5625,0.875,1.0625,9.4399995803833,-0.5799999833106995,-2.680000066757202,9.399999618530272,-0.5699999928474426,-2.700000047683716,41233155
1749115633170800075,-0.75,1.0,1.125,9.43000030517578,-0.6000000238418579,-2.650000095367432,9.399999618530272,-0.5699999928474426,-2.700000047683716,41233170
1749115633197072919,-0.75,0.9375,0.9375,9.390000343322754,-0.6499999761581421,-2.650000095367432,9.399999618530272,-0.5699999928474426,-2.700000047683716,41233197
1749115633212394489,-0.5,0.875,0.6875,9.390000343322754,-0.699999988079071,-2.6700000762939453,9.40999984741211,-0.5799999833106995,-2.690000057220459,41233212
1749115633234389566,0.25,0.5625,0.0625,9.40999984741211,-0.6499999761581421,-2.6600000858306885,9.40999984741211,-0.5799999833106995,-2.690000057220459,41233234
1749115633252046712,0.4375,0.5625,-0.3125,9.40999984741211,-0.6600000262260437,-2.690000057220459,9.40999984741211,-0.5799999833106995,-2.690000057220459,41233252
1749115633271002923,0.4375,0.5625,-0.5,9.399999618530272,-0.6700000166893005,-2.680000066757202,9.40999984741211,-0.5799999833106995,-2.690000057220459,41233271
1749115633315085130,0.625,0.4375,-0.75,9.43000030517578,-0.6600000262260437,-2.640000104904175,9.40999984741211,-0.5699999928474426,-2.690000057220459,41233315
1749115633324156264,1.0,0.375,-0.8125,9.40999984741211,-0.6399999856948853,-2.640000104904175,9.40999984741211,-0.5699999928474426,-2.690000057220459,41233324
1749115633337924855,1.0,0.3125,-0.9375,9.40999984741211,-0.6200000047683716,-2.619999885559082,9.40999984741211,-0.5699999928474426,-2.690000057220459,41233337
1749115633361742777,1.0625,0.3125,-1.0,9.40999984741211,-0.6299999952316284,-2.650000095367432,9.40999984741211,-0.5699999928474426,-2.690000057220459,41233361
1749115633386935726,1.125,0.25,-1.125,9.40999984741211,-0.6499999761581421,-2.650000095367432,9.40999984741211,-0.5600000023841858,-2.690000057220459,41233386
1749115633394684120,0.9375,0.25,-1.4375,9.40999984741211,-0.6499999761581421,-2.650000095367432,9.40999984741211,-0.5600000023841858,-2.690000057220459,41233394
1749115633413267116,1.4375,0.125,-1.625,9.399999618530272,-0.6399999856948853,-2.680000066757202,9.40999984741211,-0.5600000023841858,-2.690000057220459,41233413
1749115633432149012,1.4375,0.125,-1.9375,9.40999984741211,-0.6200000047683716,-2.630000114440918,9.40999984741211,-0.550000011920929,-2.690000057220459,41233432
1749115633456162673,1.375,0.0,-2.125,9.43000030517578,-0.6100000143051147,-2.650000095367432,9.40999984741211,-0.550000011920929,-2.690000057220459,41233456
1749115633472215330,1.1875,0.125,-2.125,9.420000076293944,-0.5699999928474426,-2.640000104904175,9.40999984741211,-0.5400000214576721,-2.690000057220459,41233472
1749115633491152885,1.25,0.0,-2.0,9.420000076293944,-0.5799999833106995,-2.6600000858306885,9.40999984741211,-0.5400000214576721,-2.690000057220459,41233491
1749115633517040672,0.875,0.0625,-1.75,9.420000076293944,-0.550000011920929,-2.640000104904175,9.40999984741211,-0.5299999713897705,-2.690000057220459,41233517
1749115633541943500,0.375,0.0,-1.5625,9.43000030517578,-0.5199999809265137,-2.640000104904175,9.40999984741211,-0.5299999713897705,-2.690000057220459,41233541
1749115633556043955,0.125,0.1875,-1.3125,9.4399995803833,-0.5400000214576721,-2.6600000858306885,9.40999984741211,-0.5199999809265137,-2.690000057220459,41233556
1749115633574825736,-0.25,0.125,-0.8125,9.4399995803833,-0.5400000214576721,-2.640000104904175,9.40999984741211,-0.5199999809265137,-2.690000057220459,41233574
1749115633601270093,-0.5625,-0.0625,-0.5,9.40999984741211,-0.5400000214576721,-2.640000104904175,9.40999984741211,-0.5199999809265137,-2.690000057220459,41233601
1749115633621052343,-0.5625,0.0625,-0.25,9.43000030517578,-0.550000011920929,-2.640000104904175,9.40999984741211,-0.5199999809265137,-2.690000057220459,41233621
1749115633645787070,-0.4375,0.0,-0.1875,9.420000076293944,-0.5699999928474426,-2.650000095367432,9.40999984741211,-0.5199999809265137,-2.690000057220459,41233645
1749115633687873726,-0.4375,0.0,-0.125,9.399999618530272,-0.6100000143051147,-2.6600000858306885,9.40999984741211,-0.5199999809265137,-2.690000057220459,41233687
1749115633687979835,-0.25,-0.125,-0.375,9.420000076293944,-0.5899999737739563,-2.630000114440918,9.40999984741211,-0.5199999809265137,-2.690000057220459,41233687
1749115633700077830,0.1875,-0.3125,-0.6875,9.40999984741211,-0.5699999928474426,-2.630000114440918,9.40999984741211,-0.5199999809265137,-2.690000057220459,41233700
1749115633713966228,0.1875,-0.3125,-0.8125,9.420000076293944,-0.5699999928474426,-2.680000066757202,9.40999984741211,-0.5099999904632568,-2.690000057220459,41233713
1749115633735115435,0.125,-0.25,-0.75,9.40999984741211,-0.5600000023841858,-2.630000114440918,9.40999984741211,-0.5099999904632568,-2.690000057220459,41233735
1749115633760746101,0.1875,-0.1875,-0.625,9.43000030517578,-0.550000011920929,-2.630000114440918,9.40999984741211,-0.5099999904632568,-2.690000057220459,41233760
1749115633791923484,0.5,-0.25,-0.375,9.420000076293944,-0.5199999809265137,-2.640000104904175,9.40999984741211,-0.5099999904632568,-2.690000057220459,41233791
1749115633801182796,0.5,-0.375,-0.3125,9.43000030517578,-0.5400000214576721,-2.650000095367432,9.40999984741211,-0.5099999904632568,-2.690000057220459,41233801
1749115633820000804,0.5,-0.375,-0.0625,9.40999984741211,-0.550000011920929,-2.650000095367432,9.40999984741211,-0.5099999904632568,-2.690000057220459,41233820
1749115633840971357,0.4375,-0.125,-0.125,9.420000076293944,-0.550000011920929,-2.650000095367432,9.40999984741211,-0.5099999904632568,-2.690000057220459,41233840
1749115633855435724,0.4375,-0.25,-0.125,9.420000076293944,-0.550000011920929,-2.680000066757202,9.40999984741211,-0.5099999904632568,-2.690000057220459,41233855
1749115633877165851,0.4375,-0.25,-0.0625,9.40999984741211,-0.5600000023841858,-2.6700000762939453,9.40999984741211,-0.5099999904632568,-2.690000057220459,41233877
1749115633895684169,0.375,-0.125,-0.0625,9.420000076293944,-0.5799999833106995,-2.6600000858306885,9.40999984741211,-0.5099999904632568,-2.690000057220459,41233895
1749115633921161085,0.0625,0.0,0.0,9.43000030517578,-0.5600000023841858,-2.6600000858306885,9.40999984741211,-0.5099999904632568,-2.690000057220459,41233921
1749115633937916976,0.125,-0.125,0.0,9.40999984741211,-0.5600000023841858,-2.650000095367432,9.40999984741211,-0.5099999904632568,-2.690000057220459,41233937
1749115633983163164,-0.0625,-0.125,-0.0625,9.40999984741211,-0.550000011920929,-2.6700000762939453,9.40999984741211,-0.5099999904632568,-2.690000057220459,41233983
1749115633994857670,0.3125,-0.125,-0.0625,9.420000076293944,-0.5600000023841858,-2.640000104904175,9.40999984741211,-0.5099999904632568,-2.690000057220459,41233994
1749115634004997900,0.0625,-0.25,-0.25,9.399999618530272,-0.550000011920929,-2.650000095367432,9.40999984741211,-0.5099999904632568,-2.690000057220459,41234004
1749115634025877522,0.0625,-0.25,-0.1875,9.40999984741211,-0.550000011920929,-2.680000066757202,9.40999984741211,-0.5099999904632568,-2.690000057220459,41234025
1749115634057891831,-0.0625,-0.1875,-0.1875,9.420000076293944,-0.5699999928474426,-2.650000095367432,9.40999984741211,-0.5099999904632568,-2.690000057220459,41234057
1749115634065912287,-0.1875,-0.25,-0.0625,9.43000030517578,-0.5600000023841858,-2.6600000858306885,9.40999984741211,-0.5099999904632568,-2.690000057220459,41234065
1749115634075071592,-0.0625,-0.25,-0.1875,9.43000030517578,-0.5699999928474426,-2.6700000762939453,9.40999984741211,-0.5099999904632568,-2.690000057220459,41234075
