timestamp_ns,wx,wy,wz,ax,ay,az,gx,gy,gz,time_ms_loc
1749119067882755142,0.625,0.625,0.375,9.420000076293944,-0.7699999809265137,-2.619999885559082,9.449999809265137,-0.6499999761581421,-2.509999990463257,44667882
1749119067919032486,0.6875,0.5,0.625,9.420000076293944,-0.75,-2.630000114440918,9.449999809265137,-0.6499999761581421,-2.509999990463257,44667919
1749119067923972071,0.3125,0.375,0.5,9.449999809265137,-0.7400000095367432,-2.619999885559082,9.449999809265137,-0.6499999761581421,-2.509999990463257,44667923
1749119067944061082,0.375,0.25,0.375,9.470000267028809,-0.7799999713897705,-2.619999885559082,9.449999809265137,-0.6499999761581421,-2.509999990463257,44667944
1749119067972112023,0.3125,0.125,0.4375,9.460000038146973,-0.7599999904632568,-2.640000104904175,9.449999809265137,-0.6499999761581421,-2.509999990463257,44667972
1749119067984174457,-0.0625,0.25,0.4375,9.369999885559082,-0.800000011920929,-2.619999885559082,9.449999809265137,-0.6499999761581421,-2.509999990463257,44667984
1749119068004991944,0.1875,0.1875,0.1875,9.399999618530272,-0.800000011920929,-2.5899999141693115,9.449999809265137,-0.6499999761581421,-2.509999990463257,44668004
1749119068028870284,0.0625,0.0625,0.0625,9.380000114440918,-0.7900000214576721,-2.609999895095825,9.449999809265137,-0.6499999761581421,-2.509999990463257,44668028
1749119068043842404,0.0625,-0.125,-0.0625,9.460000038146973,-0.7799999713897705,-2.5999999046325684,9.449999809265137,-0.6499999761581421,-2.509999990463257,44668043
1749119068069131096,0.0625,-0.125,-0.25,9.449999809265137,-0.7699999809265137,-2.5899999141693115,9.449999809265137,-0.6499999761581421,-2.509999990463257,44668069
1749119068094425730,0.25,-0.1875,0.25,9.460000038146973,-0.7799999713897705,-2.630000114440918,9.449999809265137,-0.6499999761581421,-2.509999990463257,44668094
1749119068104977511,0.0,0.125,0.5625,9.420000076293944,-0.800000011920929,-2.6600000858306885,9.449999809265137,-0.6499999761581421,-2.509999990463257,44668104
1749119068126136509,-0.0625,-0.0625,0.5625,9.399999618530272,-0.800000011920929,-2.619999885559082,9.449999809265137,-0.6499999761581421,-2.509999990463257,44668126
1749119068144150116,0.25,-0.125,0.5,9.390000343322754,-0.800000011920929,-2.619999885559082,9.449999809265137,-0.6499999761581421,-2.509999990463257,44668144
1749119068195017822,0.5625,-0.4375,0.25,9.399999618530272,-0.8199999928474426,-2.650000095367432,9.449999809265137,-0.6499999761581421,-2.509999990463257,44668195
1749119068210223960,0.9375,-0.625,0.125,9.399999618530272,-0.8299999833106995,-2.6600000858306885,9.449999809265137,-0.6499999761581421,-2.509999990463257,44668210
1749119068215350004,2.0,-1.0625,0.125,9.399999618530272,-0.8299999833106995,-2.6600000858306885,9.449999809265137,-0.6600000262260437,-2.5199999809265137,44668215
1749119068229179963,2.5,-1.0,0.0,9.40999984741211,-0.8600000143051147,-2.640000104904175,9.449999809265137,-0.6600000262260437,-2.5199999809265137,44668229
1749119068243112124,2.6875,-1.3125,-0.25,9.43000030517578,-0.8500000238418579,-2.630000114440918,9.449999809265137,-0.6600000262260437,-2.5299999713897705,44668243
1749119068261921062,2.4375,-1.3125,-0.25,9.43000030517578,-0.8299999833106995,-2.619999885559082,9.4399995803833,-0.6700000166893005,-2.5299999713897705,44668261
1749119068284153965,2.375,-1.375,-0.4375,9.399999618530272,-0.8399999737739563,-2.640000104904175,9.4399995803833,-0.6700000166893005,-2.539999961853028,44668284
1749119068308085674,2.0,-1.1875,-0.5625,9.43000030517578,-0.8399999737739563,-2.640000104904175,9.4399995803833,-0.6800000071525574,-2.539999961853028,44668308
1749119068321195251,1.875,-1.0625,-0.5625,9.40999984741211,-0.8299999833106995,-2.630000114440918,9.4399995803833,-0.6800000071525574,-2.539999961853028,44668321
1749119068346132620,0.75,-0.75,-0.5,9.420000076293944,-0.8600000143051147,-2.640000104904175,9.4399995803833,-0.6800000071525574,-2.549999952316284,44668346
1749119068365882354,0.625,-0.625,-0.625,9.420000076293944,-0.8600000143051147,-2.6700000762939453,9.4399995803833,-0.6800000071525574,-2.549999952316284,44668365
1749119068386188467,0.3125,-0.375,-0.625,9.420000076293944,-0.8199999928474426,-2.650000095367432,9.4399995803833,-0.6800000071525574,-2.549999952316284,44668386
1749119068411124899,0.0625,-0.375,-0.625,9.420000076293944,-0.7900000214576721,-2.650000095367432,9.4399995803833,-0.6800000071525574,-2.549999952316284,44668411
1749119068423744279,-0.125,-0.375,-0.6875,9.399999618530272,-0.8399999737739563,-2.6600000858306885,9.4399995803833,-0.6800000071525574,-2.549999952316284,44668423
1749119068450115728,-0.6875,-0.25,-0.6875,9.420000076293944,-0.8600000143051147,-2.690000057220459,9.4399995803833,-0.6800000071525574,-2.559999942779541,44668450
1749119068464968278,-0.9375,-0.25,-0.8125,9.420000076293944,-0.8899999856948853,-2.6700000762939453,9.4399995803833,-0.6800000071525574,-2.559999942779541,44668464
1749119068486057931,-2.1875,-0.3125,-1.4375,9.390000343322754,-0.9300000071525574,-2.6600000858306885,9.4399995803833,-0.6800000071525574,-2.559999942779541,44668486
1749119068506082883,-2.125,-0.375,-2.0625,9.399999618530272,-0.8500000238418579,-2.650000095367432,9.4399995803833,-0.6700000166893005,-2.559999942779541,44668506
1749119068530631068,-2.0625,-0.3125,-2.3125,9.40999984741211,-0.8700000047683716,-2.690000057220459,9.4399995803833,-0.6700000166893005,-2.559999942779541,44668530
1749119068569875170,-2.125,-0.0625,-2.5625,9.420000076293944,-0.8299999833106995,-2.700000047683716,9.4399995803833,-0.6600000262260437,-2.569999933242798,44668569
1749119068579349272,-1.8125,-0.125,-2.625,9.40999984741211,-0.8100000023841858,-2.6700000762939453,9.4399995803833,-0.6600000262260437,-2.569999933242798,44668579
1749119068597970226,-1.375,-0.125,-2.6875,9.40999984741211,-0.7900000214576721,-2.690000057220459,9.4399995803833,-0.6399999856948853,-2.569999933242798,44668597
1749119068602889654,-1.0625,-0.1875,-2.625,9.420000076293944,-0.7599999904632568,-2.680000066757202,9.4399995803833,-0.6399999856948853,-2.569999933242798,44668602
1749119068621006230,-1.0,-0.0625,-2.5625,9.399999618530272,-0.7599999904632568,-2.690000057220459,9.4399995803833,-0.6299999952316284,-2.569999933242798,44668621
1749119068644256741,-1.0,-0.125,-2.1875,9.40999984741211,-0.7599999904632568,-2.6700000762939453,9.4399995803833,-0.6200000047683716,-2.569999933242798,44668644
1749119068669261420,-0.875,-0.125,-2.0625,9.420000076293944,-0.7400000095367432,-2.690000057220459,9.4399995803833,-0.6200000047683716,-2.569999933242798,44668669
1749119068684904939,-0.625,-0.125,-1.6875,9.4399995803833,-0.7699999809265137,-2.680000066757202,9.4399995803833,-0.6100000143051147,-2.5799999237060547,44668684
1749119068703308156,-0.6875,0.0,-1.8125,9.420000076293944,-0.75,-2.6700000762939453,9.4399995803833,-0.6100000143051147,-2.5799999237060547,44668703
1749119068729234292,-0.625,-0.0625,-1.6875,9.420000076293944,-0.7699999809265137,-2.6600000858306885,9.4399995803833,-0.6000000238418579,-2.5799999237060547,44668729
1749119068743133473,-0.4375,-0.1875,-1.5625,9.420000076293944,-0.75,-2.6700000762939453,9.4399995803833,-0.6000000238418579,-2.5799999237060547,44668743
1749119068762846216,-0.4375,-0.0625,-1.5,9.420000076293944,-0.7300000190734863,-2.680000066757202,9.4399995803833,-0.6000000238418579,-2.5799999237060547,44668762
1749119068786212298,-0.25,-0.0625,-1.375,9.399999618530272,-0.7300000190734863,-2.700000047683716,9.4399995803833,-0.5899999737739563,-2.5799999237060547,44668786
1749119068809996739,-0.25,0.125,-1.25,9.43000030517578,-0.699999988079071,-2.6600000858306885,9.4399995803833,-0.5899999737739563,-2.5799999237060547,44668809
1749119068825269751,-0.125,0.1875,-0.875,9.43000030517578,-0.7200000286102295,-2.700000047683716,9.4399995803833,-0.5899999737739563,-2.5799999237060547,44668825
1749119068850172858,0.0,0.125,-0.5625,9.420000076293944,-0.7200000286102295,-2.690000057220459,9.4399995803833,-0.5899999737739563,-2.5799999237060547,44668850
1749119068868990131,0.0625,0.0,-0.5,9.420000076293944,-0.7200000286102295,-2.6700000762939453,9.43000030517578,-0.5899999737739563,-2.5899999141693115,44668868
1749119068885528690,-0.0625,0.0625,-0.3125,9.43000030517578,-0.7200000286102295,-2.680000066757202,9.43000030517578,-0.5899999737739563,-2.5899999141693115,44668885
1749119068910799319,0.3125,0.0,-0.3125,9.420000076293944,-0.7200000286102295,-2.6600000858306885,9.43000030517578,-0.5899999737739563,-2.5899999141693115,44668910
1749119068938898217,0.25,0.1875,0.0,9.420000076293944,-0.7200000286102295,-2.6700000762939453,9.43000030517578,-0.5899999737739563,-2.5899999141693115,44668938
1749119068951934556,0.375,0.0625,0.25,9.399999618530272,-0.7099999785423279,-2.6700000762939453,9.43000030517578,-0.5899999737739563,-2.5899999141693115,44668951
1749119068963708947,0.25,0.1875,0.375,9.43000030517578,-0.7300000190734863,-2.6700000762939453,9.43000030517578,-0.5899999737739563,-2.5899999141693115,44668963
1749119068984037386,0.6875,0.125,0.75,9.43000030517578,-0.7099999785423279,-2.680000066757202,9.43000030517578,-0.6000000238418579,-2.5899999141693115,44668984
1749119069004920207,1.0625,0.0625,0.875,9.40999984741211,-0.7599999904632568,-2.700000047683716,9.43000030517578,-0.6000000238418579,-2.5899999141693115,44669004
1749119069023992795,1.4375,-0.0625,1.0625,9.40999984741211,-0.7699999809265137,-2.7100000381469727,9.43000030517578,-0.6100000143051147,-2.5899999141693115,44669023
1749119069044983984,2.0,-0.1875,0.875,9.390000343322754,-0.8199999928474426,-2.7100000381469727,9.43000030517578,-0.6200000047683716,-2.5899999141693115,44669044
1749119069070819521,2.5625,-0.375,0.75,9.420000076293944,-0.7900000214576721,-2.680000066757202,9.43000030517578,-0.6200000047683716,-2.5899999141693115,44669070
1749119069083245685,2.1875,-0.375,0.6875,9.390000343322754,-0.8199999928474426,-2.690000057220459,9.43000030517578,-0.6299999952316284,-2.5899999141693115,44669083
1749119069103867417,1.9375,-0.25,0.1875,9.420000076293944,-0.8100000023841858,-2.6700000762939453,9.43000030517578,-0.6299999952316284,-2.5899999141693115,44669103
1749119069119874665,1.5625,-0.1875,0.3125,9.40999984741211,-0.800000011920929,-2.6700000762939453,9.43000030517578,-0.6299999952316284,-2.5899999141693115,44669119
1749119069147990745,0.5625,0.1875,0.0,9.40999984741211,-0.8100000023841858,-2.680000066757202,9.43000030517578,-0.6399999856948853,-2.5999999046325684,44669147
1749119069171131254,0.375,0.125,0.0,9.40999984741211,-0.8199999928474426,-2.6700000762939453,9.43000030517578,-0.6399999856948853,-2.5999999046325684,44669171
1749119069185080728,0.3125,0.125,-0.0625,9.420000076293944,-0.800000011920929,-2.690000057220459,9.43000030517578,-0.6399999856948853,-2.5999999046325684,44669185
1749119069211105572,0.1875,0.1875,-0.3125,9.4399995803833,-0.800000011920929,-2.7100000381469727,9.43000030517578,-0.6399999856948853,-2.5999999046325684,44669211
1749119069223154122,0.125,0.25,-0.375,9.40999984741211,-0.800000011920929,-2.700000047683716,9.43000030517578,-0.6499999761581421,-2.5999999046325684,44669223
1749119069246381886,-0.125,0.375,-0.4375,9.420000076293944,-0.7900000214576721,-2.700000047683716,9.43000030517578,-0.6499999761581421,-2.5999999046325684,44669246
1749119069273120063,-0.3125,0.5,-0.375,9.420000076293944,-0.8100000023841858,-2.680000066757202,9.43000030517578,-0.6499999761581421,-2.5999999046325684,44669273
1749119069285198149,-0.3125,0.4375,-0.5625,9.40999984741211,-0.7900000214576721,-2.6700000762939453,9.43000030517578,-0.6499999761581421,-2.5999999046325684,44669285
1749119069308085541,-0.75,0.5,-0.5,9.399999618530272,-0.800000011920929,-2.650000095367432,9.43000030517578,-0.6499999761581421,-2.5999999046325684,44669308
1749119069323157572,-0.5,0.5,-0.4375,9.40999984741211,-0.8100000023841858,-2.6700000762939453,9.43000030517578,-0.6499999761581421,-2.5999999046325684,44669323
1749119069346013839,-0.3125,0.4375,-0.625,9.40999984741211,-0.8100000023841858,-2.6600000858306885,9.43000030517578,-0.6499999761581421,-2.5999999046325684,44669346
1749119069360827030,-0.3125,0.625,-0.4375,9.399999618530272,-0.800000011920929,-2.680000066757202,9.43000030517578,-0.6499999761581421,-2.5999999046325684,44669360
1749119069384106319,-0.625,0.5,-0.625,9.420000076293944,-0.8199999928474426,-2.6700000762939453,9.43000030517578,-0.6499999761581421,-2.5999999046325684,44669384
1749119069405874450,-0.5625,0.3125,-0.6875,9.420000076293944,-0.8199999928474426,-2.650000095367432,9.43000030517578,-0.6499999761581421,-2.5999999046325684,44669405
1749119069423150587,-0.5,0.375,-0.6875,9.40999984741211,-0.7900000214576721,-2.6700000762939453,9.420000076293944,-0.6499999761581421,-2.609999895095825,44669423
1749119069492159616,-0.5625,0.1875,-0.875,9.399999618530272,-0.800000011920929,-2.690000057220459,9.420000076293944,-0.6499999761581421,-2.609999895095825,44669492
1749119069515170372,-0.375,0.3125,-0.875,9.399999618530272,-0.7699999809265137,-2.6700000762939453,9.420000076293944,-0.6499999761581421,-2.609999895095825,44669515
1749119069540100543,-0.75,0.0625,-0.8125,9.40999984741211,-0.8100000023841858,-2.6700000762939453,9.420000076293944,-0.6499999761581421,-2.609999895095825,44669540
1749119069556191961,-0.5625,0.0,-0.9375,9.420000076293944,-0.8199999928474426,-2.6700000762939453,9.420000076293944,-0.6499999761581421,-2.609999895095825,44669556
1749119069576105629,-0.625,0.125,-0.9375,9.40999984741211,-0.8199999928474426,-2.690000057220459,9.420000076293944,-0.6499999761581421,-2.609999895095825,44669576
1749119069579889258,-0.5,0.0,-0.9375,9.399999618530272,-0.800000011920929,-2.6700000762939453,9.420000076293944,-0.6399999856948853,-2.609999895095825,44669579
1749119069594675567,-0.625,0.25,-0.8125,9.4399995803833,-0.7900000214576721,-2.680000066757202,9.420000076293944,-0.6399999856948853,-2.609999895095825,44669594
1749119069613173519,-0.6875,0.0625,-1.0,9.420000076293944,-0.7900000214576721,-2.680000066757202,9.420000076293944,-0.6399999856948853,-2.609999895095825,44669613
1749119069626311702,-0.75,0.0,-0.9375,9.420000076293944,-0.8100000023841858,-2.6700000762939453,9.420000076293944,-0.6399999856948853,-2.609999895095825,44669626
1749119069641108874,-0.6875,-0.25,-1.0625,9.399999618530272,-0.800000011920929,-2.680000066757202,9.420000076293944,-0.6399999856948853,-2.609999895095825,44669641
1749119069651752777,-0.6875,0.0,-1.0625,9.390000343322754,-0.8100000023841858,-2.690000057220459,9.420000076293944,-0.6299999952316284,-2.609999895095825,44669651
1749119069671120988,-0.625,0.0,-1.125,9.420000076293944,-0.7699999809265137,-2.690000057220459,9.420000076293944,-0.6299999952316284,-2.609999895095825,44669671
1749119069683162462,-0.375,0.1875,-1.0625,9.420000076293944,-0.7799999713897705,-2.6700000762939453,9.420000076293944,-0.6299999952316284,-2.609999895095825,44669683
1749119069708964782,-0.3125,0.0625,-1.125,9.399999618530272,-0.7799999713897705,-2.680000066757202,9.420000076293944,-0.6299999952316284,-2.609999895095825,44669708
1749119069735297984,-0.4375,0.125,-0.9375,9.390000343322754,-0.7799999713897705,-2.680000066757202,9.420000076293944,-0.6200000047683716,-2.619999885559082,44669735
1749119069747033106,-0.4375,0.0,-1.0625,9.420000076293944,-0.7699999809265137,-2.690000057220459,9.420000076293944,-0.6200000047683716,-2.619999885559082,44669747
1749119069764924367,-0.5,0.0,-1.125,9.420000076293944,-0.75,-2.6700000762939453,9.420000076293944,-0.6200000047683716,-2.619999885559082,44669764
1749119069790138341,-0.4375,0.0625,-1.1875,9.420000076293944,-0.7599999904632568,-2.680000066757202,9.420000076293944,-0.6200000047683716,-2.619999885559082,44669790
1749119069804289952,-0.5,0.0,-1.25,9.40999984741211,-0.7400000095367432,-2.6700000762939453,9.420000076293944,-0.6100000143051147,-2.619999885559082,44669804
1749119069820196541,-0.3125,-0.0625,-1.3125,9.40999984741211,-0.75,-2.680000066757202,9.420000076293944,-0.6100000143051147,-2.619999885559082,44669820
1749119069848318123,-0.25,-0.0625,-0.875,9.4399995803833,-0.7400000095367432,-2.690000057220459,9.420000076293944,-0.6100000143051147,-2.619999885559082,44669848
1749119069878706993,-0.1875,0.125,-0.875,9.40999984741211,-0.7699999809265137,-2.6700000762939453,9.420000076293944,-0.6100000143051147,-2.619999885559082,44669878
1749119069883155674,-0.375,0.1875,-0.8125,9.43000030517578,-0.7599999904632568,-2.680000066757202,9.420000076293944,-0.6100000143051147,-2.619999885559082,44669883
1749119069905301227,-0.125,0.1875,-0.9375,9.40999984741211,-0.7599999904632568,-2.6700000762939453,9.420000076293944,-0.6100000143051147,-2.619999885559082,44669905
1749119069928910656,0.0,0.1875,-0.5625,9.399999618530272,-0.7799999713897705,-2.6700000762939453,9.420000076293944,-0.6100000143051147,-2.619999885559082,44669928
1749119069946286624,0.1875,0.0625,-0.6875,9.390000343322754,-0.7599999904632568,-2.6700000762939453,9.420000076293944,-0.6100000143051147,-2.619999885559082,44669946
1749119069964277558,0.0625,0.125,-0.8125,9.40999984741211,-0.75,-2.680000066757202,9.420000076293944,-0.6000000238418579,-2.619999885559082,44669964
1749119069989082207,0.25,0.0625,-0.6875,9.399999618530272,-0.7300000190734863,-2.690000057220459,9.420000076293944,-0.6000000238418579,-2.619999885559082,44669989
1749119070003081579,0.25,0.25,-0.75,9.420000076293944,-0.7400000095367432,-2.7100000381469727,9.420000076293944,-0.6000000238418579,-2.619999885559082,44670003
1749119070030221055,0.0,0.3125,-0.5625,9.420000076293944,-0.7900000214576721,-2.680000066757202,9.420000076293944,-0.6000000238418579,-2.619999885559082,44670030
1749119070045217473,0.125,0.1875,-0.75,9.43000030517578,-0.7599999904632568,-2.680000066757202,9.420000076293944,-0.6000000238418579,-2.619999885559082,44670045
1749119070065015922,-0.0625,0.25,-0.5625,9.4399995803833,-0.7699999809265137,-2.6700000762939453,9.420000076293944,-0.6000000238418579,-2.619999885559082,44670065
1749119070091382659,0.0,0.3125,-0.9375,9.399999618530272,-0.7300000190734863,-2.700000047683716,9.420000076293944,-0.6000000238418579,-2.619999885559082,44670091
1749119070104139471,-0.0625,0.125,-1.0625,9.40999984741211,-0.7400000095367432,-2.6700000762939453,9.420000076293944,-0.6000000238418579,-2.619999885559082,44670104
1749119070125221089,-0.125,0.125,-1.0625,9.43000030517578,-0.7900000214576721,-2.6700000762939453,9.420000076293944,-0.5899999737739563,-2.619999885559082,44670125
1749119070151083875,0.0,0.0,-1.1875,9.420000076293944,-0.7400000095367432,-2.690000057220459,9.420000076293944,-0.5899999737739563,-2.619999885559082,44670151
1749119070163913203,0.0,0.0,-1.1875,9.399999618530272,-0.7400000095367432,-2.6700000762939453,9.420000076293944,-0.5899999737739563,-2.619999885559082,44670163
1749119070190984059,0.25,0.0625,-1.375,9.43000030517578,-0.7300000190734863,-2.680000066757202,9.420000076293944,-0.5799999833106995,-2.619999885559082,44670190
1749119070214979444,-0.25,-0.0625,-1.25,9.40999984741211,-0.7099999785423279,-2.680000066757202,9.420000076293944,-0.5799999833106995,-2.619999885559082,44670214
1749119070226972790,-0.1875,-0.1875,-1.25,9.40999984741211,-0.7400000095367432,-2.680000066757202,9.420000076293944,-0.5699999928474426,-2.619999885559082,44670226
1749119070241162542,-0.25,-0.0625,-1.0625,9.40999984741211,-0.7099999785423279,-2.6600000858306885,9.420000076293944,-0.5699999928474426,-2.619999885559082,44670241
1749119070265997615,-0.25,0.0,-1.0,9.40999984741211,-0.7300000190734863,-2.6700000762939453,9.43000030517578,-0.5699999928474426,-2.619999885559082,44670265
1749119070286137972,-0.0625,-0.125,-1.25,9.420000076293944,-0.699999988079071,-2.6600000858306885,9.43000030517578,-0.5600000023841858,-2.619999885559082,44670286
1749119070309277767,-0.0625,-0.125,-1.0625,9.43000030517578,-0.7200000286102295,-2.6700000762939453,9.43000030517578,-0.5600000023841858,-2.619999885559082,44670309
1749119070339151810,-0.0625,-0.25,-1.125,9.420000076293944,-0.699999988079071,-2.650000095367432,9.43000030517578,-0.5600000023841858,-2.619999885559082,44670339
1749119070347313049,-0.0625,-0.0625,-0.9375,9.420000076293944,-0.699999988079071,-2.6600000858306885,9.43000030517578,-0.550000011920929,-2.619999885559082,44670347
1749119070365891458,0.125,-0.125,-0.9375,9.449999809265137,-0.6899999976158142,-2.680000066757202,9.43000030517578,-0.550000011920929,-2.619999885559082,44670365
1749119070391051994,-0.0625,-0.0625,-0.875,9.43000030517578,-0.699999988079071,-2.700000047683716,9.43000030517578,-0.550000011920929,-2.619999885559082,44670391
1749119070415849945,-0.1875,0.125,-0.6875,9.420000076293944,-0.7300000190734863,-2.6700000762939453,9.43000030517578,-0.550000011920929,-2.619999885559082,44670415
1749119070420994713,-0.0625,0.25,-0.375,9.399999618530272,-0.7200000286102295,-2.680000066757202,9.43000030517578,-0.5400000214576721,-2.619999885559082,44670420
1749119070446796637,0.125,0.1875,-0.75,9.40999984741211,-0.699999988079071,-2.680000066757202,9.43000030517578,-0.5400000214576721,-2.619999885559082,44670446
1749119070463932289,-0.0625,0.1875,-0.5,9.40999984741211,-0.7200000286102295,-2.680000066757202,9.43000030517578,-0.5400000214576721,-2.619999885559082,44670463
1749119070490053440,0.0625,0.125,-0.5625,9.40999984741211,-0.6899999976158142,-2.6700000762939453,9.43000030517578,-0.5400000214576721,-2.619999885559082,44670490
1749119070503762086,0.0625,0.1875,-0.625,9.399999618530272,-0.6899999976158142,-2.6700000762939453,9.43000030517578,-0.5400000214576721,-2.619999885559082,44670503
1749119070525101314,-0.3125,0.0625,-0.375,9.399999618530272,-0.6700000166893005,-2.650000095367432,9.43000030517578,-0.5400000214576721,-2.619999885559082,44670525
1749119070545010388,-0.625,-0.125,-0.375,9.40999984741211,-0.6700000166893005,-2.700000047683716,9.43000030517578,-0.5400000214576721,-2.619999885559082,44670545
1749119070570934794,-0.5,-0.0625,-0.0625,9.4399995803833,-0.6800000071525574,-2.6700000762939453,9.43000030517578,-0.5400000214576721,-2.619999885559082,44670570
1749119070584308541,-0.3125,0.0625,0.0625,9.460000038146973,-0.6700000166893005,-2.7100000381469727,9.43000030517578,-0.5400000214576721,-2.619999885559082,44670584
1749119070608978811,-0.1875,0.25,0.25,9.449999809265137,-0.6700000166893005,-2.690000057220459,9.43000030517578,-0.5400000214576721,-2.619999885559082,44670608
1749119070625319960,-0.1875,0.4375,0.4375,9.4399995803833,-0.7200000286102295,-2.690000057220459,9.43000030517578,-0.5400000214576721,-2.619999885559082,44670625
1749119070642194523,0.125,0.6875,0.3125,9.420000076293944,-0.7300000190734863,-2.690000057220459,9.43000030517578,-0.5400000214576721,-2.619999885559082,44670642
1749119070661267301,0.0625,0.6875,0.1875,9.399999618530272,-0.7300000190734863,-2.680000066757202,9.43000030517578,-0.5400000214576721,-2.619999885559082,44670661
1749119070684189821,0.25,1.0,-0.3125,9.390000343322754,-0.7599999904632568,-2.690000057220459,9.43000030517578,-0.5400000214576721,-2.619999885559082,44670684
1749119070706139863,0.4375,0.8125,-0.625,9.43000030517578,-0.7400000095367432,-2.6700000762939453,9.43000030517578,-0.5400000214576721,-2.619999885559082,44670706
1749119070759946568,0.5625,0.9375,-1.0625,9.4399995803833,-0.7200000286102295,-2.6700000762939453,9.43000030517578,-0.5400000214576721,-2.619999885559082,44670759
1749119070773186824,0.875,0.9375,-1.1875,9.43000030517578,-0.6600000262260437,-2.6600000858306885,9.43000030517578,-0.5400000214576721,-2.609999895095825,44670773
1749119070785144385,0.75,0.8125,-0.8125,9.420000076293944,-0.6499999761581421,-2.650000095367432,9.43000030517578,-0.5400000214576721,-2.609999895095825,44670785
1749119070798000241,0.8125,1.0625,-0.5,9.479999542236328,-0.6399999856948853,-2.6700000762939453,9.43000030517578,-0.5400000214576721,-2.609999895095825,44670798
1749119070819246112,0.9375,1.125,0.0625,9.460000038146973,-0.6499999761581421,-2.6600000858306885,9.43000030517578,-0.5400000214576721,-2.5999999046325684,44670819
1749119070833967512,0.625,1.1875,0.3125,9.40999984741211,-0.6899999976158142,-2.6600000858306885,9.43000030517578,-0.5400000214576721,-2.5999999046325684,44670833
1749119070847852997,0.6875,1.0625,0.375,9.43000030517578,-0.6899999976158142,-2.6700000762939453,9.43000030517578,-0.550000011920929,-2.5999999046325684,44670847
1749119070873974104,0.875,1.125,0.1875,9.399999618530272,-0.7400000095367432,-2.6600000858306885,9.43000030517578,-0.550000011920929,-2.5899999141693115,44670873
1749119070884944695,1.3125,1.0,0.0,9.420000076293944,-0.7599999904632568,-2.650000095367432,9.4399995803833,-0.550000011920929,-2.5899999141693115,44670884
1749119070906208091,1.4375,0.875,-0.625,9.399999618530272,-0.75,-2.630000114440918,9.4399995803833,-0.550000011920929,-2.5899999141693115,44670906
1749119070921931277,1.625,0.9375,-0.9375,9.399999618530272,-0.7699999809265137,-2.5999999046325684,9.4399995803833,-0.550000011920929,-2.5899999141693115,44670921
1749119070944012592,2.375,0.8125,-1.5625,9.40999984741211,-0.7599999904632568,-2.640000104904175,9.4399995803833,-0.550000011920929,-2.5799999237060547,44670944
1749119070970960731,2.8125,0.6875,-1.75,9.420000076293944,-0.6899999976158142,-2.630000114440918,9.4399995803833,-0.550000011920929,-2.5799999237060547,44670970
1749119070981002696,3.5625,0.6875,-1.25,9.489999771118164,-0.5199999809265137,-2.680000066757202,9.4399995803833,-0.550000011920929,-2.5799999237060547,44670981
1749119071008987722,3.125,1.0,-0.375,9.470000267028809,-0.5400000214576721,-2.6700000762939453,9.4399995803833,-0.550000011920929,-2.569999933242798,44671008
1749119071033035750,2.875,1.25,0.375,9.470000267028809,-0.550000011920929,-2.6700000762939453,9.4399995803833,-0.550000011920929,-2.569999933242798,44671033
1749119071058842521,2.8125,1.5,1.875,9.479999542236328,-0.5899999737739563,-2.640000104904175,9.4399995803833,-0.5600000023841858,-2.569999933242798,44671058
1749119071082900434,2.8125,1.5625,2.5,9.449999809265137,-0.6299999952316284,-2.630000114440918,9.4399995803833,-0.5699999928474426,-2.559999942779541,44671082
1749119071090006065,4.6875,1.0625,3.1875,9.470000267028809,-0.7799999713897705,-2.5999999046325684,9.4399995803833,-0.5899999737739563,-2.559999942779541,44671090
1749119071122213256,4.6875,1.25,2.875,9.4399995803833,-0.7699999809265137,-2.5999999046325684,9.4399995803833,-0.6000000238418579,-2.549999952316284,44671122
1749119071128020908,4.1875,1.6875,2.75,9.420000076293944,-0.7799999713897705,-2.5799999237060547,9.4399995803833,-0.6100000143051147,-2.549999952316284,44671128
1749119071141083083,2.9375,2.125,1.3125,9.399999618530272,-0.7799999713897705,-2.5799999237060547,9.4399995803833,-0.6299999952316284,-2.539999961853028,44671141
1749119071165166461,2.3125,2.4375,0.875,9.390000343322754,-0.8600000143051147,-2.609999895095825,9.449999809265137,-0.6299999952316284,-2.5299999713897705,44671165
1749119071188208792,1.0625,2.5625,0.125,9.449999809265137,-0.7699999809265137,-2.569999933242798,9.449999809265137,-0.6399999856948853,-2.5199999809265137,44671188
1749119071204983023,0.6875,2.4375,-0.1875,9.4399995803833,-0.75,-2.559999942779541,9.449999809265137,-0.6399999856948853,-2.5199999809265137,44671204
1749119071221235906,0.4375,2.3125,-0.0625,9.479999542236328,-0.7599999904632568,-2.539999961853028,9.449999809265137,-0.6399999856948853,-2.509999990463257,44671221
1749119071248130164,0.8125,2.3125,-0.5625,9.5,-0.8199999928474426,-2.569999933242798,9.449999809265137,-0.6399999856948853,-2.5,44671248
1749119071273071059,0.75,2.3125,-1.125,9.520000457763672,-0.8100000023841858,-2.559999942779541,9.460000038146973,-0.6399999856948853,-2.5,44671273
1749119071297819838,0.0625,2.3125,-1.875,9.359999656677246,-0.8199999928474426,-2.559999942779541,9.460000038146973,-0.6399999856948853,-2.490000009536743,44671297
1749119071323677728,-0.5625,2.1875,-2.4375,9.390000343322754,-0.7099999785423279,-2.450000047683716,9.460000038146973,-0.6299999952316284,-2.4800000190734863,44671323
1749119071355652494,-0.9375,2.0,-2.3125,9.390000343322754,-0.6800000071525574,-2.440000057220459,9.460000038146973,-0.6299999952316284,-2.4800000190734863,44671355
1749119071369231989,-1.75,1.25,-1.625,9.5,-0.5899999737739563,-2.470000028610229,9.460000038146973,-0.6100000143051147,-2.470000028610229,44671369
1749119071375867468,-1.875,1.0,-1.0,9.520000457763672,-0.6000000238418579,-2.4800000190734863,9.460000038146973,-0.6100000143051147,-2.470000028610229,44671375
1749119071390124491,-2.4375,0.4375,1.0,9.470000267028809,-0.5799999833106995,-2.490000009536743,9.460000038146973,-0.6100000143051147,-2.470000028610229,44671390
1749119071408220613,-2.75,-0.0625,2.6875,9.420000076293944,-0.550000011920929,-2.470000028610229,9.460000038146973,-0.6200000047683716,-2.470000028610229,44671408
1749119071420030453,-3.125,-0.3125,3.5625,9.43000030517578,-0.5799999833106995,-2.470000028610229,9.460000038146973,-0.6200000047683716,-2.470000028610229,44671420
1749119071445171843,-2.6875,-0.875,6.0,9.609999656677246,-0.6299999952316284,-2.5299999713897705,9.460000038146973,-0.6399999856948853,-2.470000028610229,44671445
1749119071465929385,-2.8125,-0.625,6.875,9.550000190734863,-0.6200000047683716,-2.5,9.460000038146973,-0.6499999761581421,-2.4800000190734863,44671465
1749119071500101957,-2.875,0.0,8.5,9.470000267028809,-0.6100000143051147,-2.619999885559082,9.460000038146973,-0.6899999976158142,-2.4800000190734863,44671500
1749119071518932796,-4.125,0.5,9.4375,9.399999618530272,-0.8700000047683716,-2.609999895095825,9.449999809265137,-0.7099999785423279,-2.4800000190734863,44671518
1749119071529181929,-3.625,0.6875,9.3125,9.350000381469728,-0.8799999952316284,-2.5299999713897705,9.449999809265137,-0.7400000095367432,-2.4800000190734863,44671529
1749119071541218967,-3.5625,0.6875,8.875,9.460000038146973,-0.9100000262260436,-2.470000028610229,9.449999809265137,-0.7699999809265137,-2.4800000190734863,44671541
1749119071564986583,-2.875,0.6875,8.875,9.510000228881836,-1.0099999904632568,-2.4800000190734863,9.449999809265137,-0.7900000214576721,-2.4800000190734863,44671564
1749119071590059767,0.125,0.1875,8.8125,9.40999984741211,-0.9800000190734864,-2.640000104904175,9.449999809265137,-0.8199999928474426,-2.4800000190734863,44671590
1749119071605140207,-0.5625,0.4375,8.5,9.260000228881836,-1.2200000286102295,-2.5199999809265137,9.4399995803833,-0.8500000238418579,-2.4800000190734863,44671605
1749119071628861830,0.6875,-0.0625,7.9375,9.239999771118164,-1.2100000381469729,-2.5,9.4399995803833,-0.8700000047683716,-2.4800000190734863,44671628
1749119071642320828,4.0,-1.0625,5.625,9.529999732971191,-1.1299999952316284,-2.400000095367432,9.4399995803833,-0.9100000262260436,-2.4800000190734863,44671642
1749119071664938509,4.4375,-1.125,5.1875,9.460000038146973,-1.0299999713897705,-2.490000009536743,9.4399995803833,-0.9200000166893004,-2.4800000190734863,44671664
1749119071685285443,4.375,-0.9375,4.0,9.470000267028809,-1.1699999570846558,-2.609999895095825,9.43000030517578,-0.949999988079071,-2.490000009536743,44671685
1749119071709490802,4.375,-0.5,2.625,9.4399995803833,-1.1399999856948853,-2.5299999713897705,9.43000030517578,-0.9700000286102296,-2.4800000190734863,44671709
1749119071729912862,4.1875,-0.3125,2.0,9.399999618530272,-1.1399999856948853,-2.569999933242798,9.43000030517578,-0.9700000286102296,-2.4800000190734863,44671729
1749119071741477252,3.75,-0.25,0.5625,9.239999771118164,-1.090000033378601,-2.4800000190734863,9.43000030517578,-0.9800000190734864,-2.4800000190734863,44671741
1749119071768729072,3.625,-0.5625,0.375,9.289999961853027,-1.059999942779541,-2.4600000381469727,9.43000030517578,-0.9900000095367432,-2.4800000190734863,44671768
1749119071781276753,3.8125,-1.125,1.0625,9.489999771118164,-1.0,-2.5299999713897705,9.43000030517578,-0.9900000095367432,-2.490000009536743,44671781
1749119071801159933,4.5625,-1.3125,1.625,9.510000228881836,-1.0499999523162842,-2.5799999237060547,9.43000030517578,-1.0,-2.490000009536743,44671801
1749119071826495861,4.625,-1.0,2.125,9.40999984741211,-1.0499999523162842,-2.6700000762939453,9.420000076293944,-1.0099999904632568,-2.490000009536743,44671826
1749119071841120249,5.1875,0.1875,2.375,9.460000038146973,-1.159999966621399,-2.720000028610229,9.420000076293944,-1.0299999713897705,-2.490000009536743,44671841
1749119071869205792,4.25,1.875,2.25,9.710000038146973,-1.0099999904632568,-2.630000114440918,9.420000076293944,-1.0399999618530271,-2.490000009536743,44671869
1749119071884623702,1.0625,3.8125,2.375,9.420000076293944,-1.149999976158142,-2.7300000190734863,9.420000076293944,-1.0499999523162842,-2.4800000190734863,44671884
1749119071907199252,-0.1875,5.3125,1.9375,9.3100004196167,-1.2899999618530271,-2.640000104904175,9.43000030517578,-1.059999942779541,-2.4600000381469727,44671907
1749119071926019818,-0.3125,5.375,1.5625,9.220000267028809,-1.25,-2.430000066757202,9.43000030517578,-1.059999942779541,-2.450000047683716,44671926
1749119071949275568,1.1875,4.8125,0.375,9.34000015258789,-1.1699999570846558,-2.5299999713897705,9.43000030517578,-1.059999942779541,-2.430000066757202,44671949
1749119071962099342,1.0,4.875,0.0,9.399999618530272,-1.1799999475479126,-2.5799999237060547,9.4399995803833,-1.0700000524520874,-2.4200000762939453,44671962
1749119071989014553,-0.625,6.4375,0.4375,9.609999656677246,-0.9300000071525574,-2.640000104904175,9.4399995803833,-1.0700000524520874,-2.400000095367432,44671989
1749119072023052484,-4.1875,8.125,1.4375,9.5,-1.0399999618530271,-2.5199999809265137,9.449999809265137,-1.0700000524520874,-2.380000114440918,44672023
1749119072048006793,-4.75,8.375,1.75,9.539999961853027,-1.149999976158142,-2.3299999237060547,9.449999809265137,-1.0700000524520874,-2.3499999046325684,44672048
1749119072074055813,-3.3125,7.375,2.5625,9.539999961853027,-1.0499999523162842,-2.25,9.460000038146973,-1.0700000524520874,-2.3299999237060547,44672074
1749119072089170049,-3.3125,7.125,3.0625,9.470000267028809,-1.1200000047683716,-2.309999942779541,9.460000038146973,-1.0800000429153442,-2.309999942779541,44672089
1749119072093291599,-4.25,6.875,3.125,9.369999885559082,-1.2400000095367432,-2.4100000858306885,9.470000267028809,-1.090000033378601,-2.289999961853028,44672093
1749119072103917411,-4.8125,6.6875,3.0,9.460000038146973,-1.1699999570846558,-2.299999952316284,9.470000267028809,-1.100000023841858,-2.2699999809265137,44672103
1749119072121278948,-4.6875,6.4375,2.9375,9.5600004196167,-1.2300000190734863,-2.1700000762939453,9.470000267028809,-1.100000023841858,-2.25,44672121
1749119072147151377,-2.375,5.5,3.125,9.550000190734863,-1.1200000047683716,-2.2100000381469727,9.479999542236328,-1.1100000143051147,-2.2300000190734863,44672147
1749119072160938627,-2.4375,5.375,3.4375,9.56999969482422,-1.0,-2.3499999046325684,9.479999542236328,-1.1200000047683716,-2.220000028610229,44672160
1749119072183177799,-5.25,6.3125,5.6875,9.529999732971191,-0.9700000286102296,-2.3399999141693115,9.479999542236328,-1.1299999952316284,-2.200000047683716,44672183
1749119072207987260,-7.125,7.1875,7.6875,9.520000457763672,-0.949999988079071,-2.309999942779541,9.479999542236328,-1.149999976158142,-2.180000066757202,44672207
1749119072229968864,-7.9375,7.5,8.5,9.5600004196167,-1.100000023841858,-2.259999990463257,9.489999771118164,-1.159999966621399,-2.1700000762939453,44672229
1749119072244882881,-7.6875,7.3125,9.625,9.399999618530272,-1.3600000143051147,-2.2100000381469727,9.489999771118164,-1.2000000476837158,-2.140000104904175,44672244
1749119072266934907,-6.875,7.1875,9.6875,9.470000267028809,-1.3799999952316284,-2.190000057220459,9.489999771118164,-1.2200000286102295,-2.119999885559082,44672266
1749119072282103293,-6.0,6.8125,9.0625,9.56999969482422,-1.3600000143051147,-2.180000066757202,9.489999771118164,-1.25,-2.0999999046325684,44672282
1749119072304777217,-5.3125,6.6875,7.8125,9.420000076293944,-1.5,-2.109999895095825,9.489999771118164,-1.2699999809265137,-2.0799999237060547,44672304
1749119072324856434,-5.625,6.625,7.0625,9.350000381469728,-1.5499999523162842,-2.0899999141693115,9.489999771118164,-1.2899999618530271,-2.059999942779541,44672324
1749119072350124408,-4.875,5.75,3.8125,9.3100004196167,-1.590000033378601,-2.0999999046325684,9.489999771118164,-1.309999942779541,-2.049999952316284,44672350
1749119072373837869,-4.375,5.4375,2.9375,9.619999885559082,-1.4800000190734863,-2.039999961853028,9.5,-1.3200000524520874,-2.0299999713897705,44672373
1749119072380817523,-4.0625,5.4375,0.9375,9.5600004196167,-1.4800000190734863,-2.0999999046325684,9.5,-1.3200000524520874,-2.0199999809265137,44672380
1749119072406026636,-4.5625,5.9375,0.0625,9.579999923706056,-1.3600000143051147,-2.130000114440918,9.5,-1.3200000524520874,-2.0,44672406
1749119072437688265,-5.375,6.25,0.0,9.59000015258789,-1.2799999713897705,-2.150000095367432,9.510000228881836,-1.309999942779541,-1.9800000190734863,44672437
1749119072453630511,-8.3125,8.1875,-0.125,9.520000457763672,-1.3200000524520874,-2.1700000762939453,9.510000228881836,-1.309999942779541,-1.9700000286102293,44672453
1749119072470074451,-8.5625,8.3125,0.25,9.399999618530272,-1.350000023841858,-2.0999999046325684,9.510000228881836,-1.2999999523162842,-1.950000047683716,44672470
1749119072482126827,-6.0625,7.5625,-0.125,9.520000457763672,-1.409999966621399,-2.0,9.520000457763672,-1.2999999523162842,-1.919999957084656,44672482
1749119072505441852,-3.75,7.25,-0.375,9.520000457763672,-1.3899999856948853,-1.909999966621399,9.529999732971191,-1.2999999523162842,-1.899999976158142,44672505
1749119072520118712,-3.6875,7.125,-0.6875,9.489999771118164,-1.4500000476837158,-1.950000047683716,9.529999732971191,-1.2899999618530271,-1.8799999952316284,44672520
1749119072541138546,-2.625,6.75,-2.625,9.359999656677246,-1.4500000476837158,-2.009999990463257,9.529999732971191,-1.2899999618530271,-1.8600000143051147,44672541
1749119072560501798,-2.5,6.375,-3.125,9.369999885559082,-1.4800000190734863,-1.9600000381469729,9.539999961853027,-1.2799999713897705,-1.850000023841858,44672560
1749119072586325881,-0.625,4.4375,-3.9375,9.489999771118164,-1.3300000429153442,-1.7100000381469729,9.539999961853027,-1.2699999809265137,-1.830000042915344,44672586
1749119072608989037,1.375,2.6875,-3.3125,9.539999961853027,-1.2300000190734863,-1.690000057220459,9.550000190734863,-1.25,-1.8200000524520876,44672608
1749119072643971496,1.8125,1.8125,-2.8125,9.609999656677246,-1.1299999952316284,-1.7599999904632568,9.550000190734863,-1.25,-1.8200000524520876,44672643
1749119072651071887,1.125,0.375,-0.5,9.609999656677246,-1.1200000047683716,-1.840000033378601,9.550000190734863,-1.2400000095367432,-1.809999942779541,44672651
1749119072661343189,0.125,0.0625,1.0,9.619999885559082,-1.190000057220459,-1.809999942779541,9.550000190734863,-1.25,-1.809999942779541,44672661
1749119072679949574,-0.4375,-0.4375,2.0625,9.600000381469728,-1.2000000476837158,-1.850000023841858,9.550000190734863,-1.25,-1.809999942779541,44672679
1749119072704273937,-0.375,-0.8125,2.8125,9.520000457763672,-1.2699999809265137,-1.840000033378601,9.550000190734863,-1.2599999904632568,-1.809999942779541,44672704
1749119072725074626,-0.4375,-0.9375,2.875,9.520000457763672,-1.3200000524520874,-1.8600000143051147,9.550000190734863,-1.2599999904632568,-1.8200000524520876,44672725
1749119072741004184,-0.5625,-1.25,2.4375,9.489999771118164,-1.409999966621399,-1.940000057220459,9.539999961853027,-1.2799999713897705,-1.8200000524520876,44672741
1749119072777795774,-0.25,-1.125,1.8125,9.529999732971191,-1.409999966621399,-1.9299999475479128,9.539999961853027,-1.2799999713897705,-1.830000042915344,44672777
1749119072794256784,-0.25,-0.5,0.3125,9.520000457763672,-1.4500000476837158,-1.9600000381469729,9.539999961853027,-1.2899999618530271,-1.830000042915344,44672794
1749119072811061510,0.25,-0.0625,-1.25,9.479999542236328,-1.5700000524520874,-2.059999942779541,9.539999961853027,-1.2899999618530271,-1.830000042915344,44672811
1749119072823220875,0.5,0.125,-2.1875,9.720000267028809,-1.3700000047683716,-1.9900000095367432,9.539999961853027,-1.2799999713897705,-1.840000033378601,44672823
1749119072845158347,0.0,2.25,-4.125,9.65999984741211,-1.4299999475479126,-2.059999942779541,9.539999961853027,-1.2699999809265137,-1.830000042915344,44672845
1749119072869942188,1.1875,3.125,-5.125,9.630000114440918,-1.4700000286102295,-2.0,9.550000190734863,-1.2599999904632568,-1.830000042915344,44672869
1749119072889139813,1.6875,2.8125,-5.5,9.34000015258789,-1.2599999904632568,-1.850000023841858,9.550000190734863,-1.25,-1.8200000524520876,44672889
1749119072907806226,2.75,2.4375,-5.875,9.600000381469728,-1.1299999952316284,-1.7999999523162842,9.550000190734863,-1.2300000190734863,-1.809999942779541,44672907
1749119072933979355,3.125,1.875,-5.625,9.59000015258789,-1.1100000143051147,-1.8600000143051147,9.5600004196167,-1.2200000286102295,-1.7999999523162842,44672933
1749119072944048483,2.5625,2.3125,-4.125,9.729999542236328,-1.1299999952316284,-1.919999957084656,9.5600004196167,-1.2000000476837158,-1.7899999618530271,44672944
1749119072967139217,2.0625,2.4375,-3.5,9.739999771118164,-1.2000000476837158,-1.919999957084656,9.5600004196167,-1.190000057220459,-1.7799999713897705,44672967
1749119072993872915,1.5,3.125,-2.6875,9.489999771118164,-1.1699999570846558,-1.7899999618530271,9.56999969482422,-1.1799999475479126,-1.7699999809265137,44672993
1749119073004831558,1.125,2.8125,-2.125,9.600000381469728,-1.1799999475479126,-1.7599999904632568,9.56999969482422,-1.1799999475479126,-1.7599999904632568,44673004
1749119073025082127,0.8125,2.8125,-1.9375,9.579999923706056,-1.1100000143051147,-1.7300000190734863,9.56999969482422,-1.1699999570846558,-1.75,44673025
1749119073041059884,0.375,2.125,-0.875,9.56999969482422,-1.0800000429153442,-1.840000033378601,9.56999969482422,-1.1699999570846558,-1.75,44673041
1749119073065206378,0.3125,2.0,0.375,9.579999923706056,-1.0499999523162842,-1.840000033378601,9.56999969482422,-1.1699999570846558,-1.7400000095367432,44673065
1749119073089174836,-0.9375,2.125,1.75,9.449999809265137,-1.1299999952316284,-1.7899999618530271,9.56999969482422,-1.1699999570846558,-1.7400000095367432,44673089
1749119073103966443,-1.5625,1.9375,2.75,9.699999809265137,-1.2300000190734863,-1.7999999523162842,9.56999969482422,-1.1799999475479126,-1.7300000190734863,44673103
1749119073130183732,-1.1875,2.0,3.125,9.630000114440918,-1.2400000095367432,-1.690000057220459,9.56999969482422,-1.190000057220459,-1.7200000286102295,44673130
1749119073148962647,0.3125,1.8125,3.8125,9.649999618530272,-1.2400000095367432,-1.840000033378601,9.56999969482422,-1.2000000476837158,-1.7200000286102295,44673148
1749119073161022417,0.3125,2.0,3.9375,9.600000381469728,-1.2599999904632568,-1.850000023841858,9.56999969482422,-1.2100000381469729,-1.7100000381469729,44673161
1749119073181125765,-1.25,2.4375,3.6875,9.479999542236328,-1.399999976158142,-1.7699999809265137,9.56999969482422,-1.2300000190734863,-1.7100000381469729,44673181
1749119073202176550,-0.9375,2.4375,2.625,9.550000190734863,-1.4199999570846558,-1.7300000190734863,9.56999969482422,-1.2400000095367432,-1.7000000476837158,44673202
1749119073226021898,-0.8125,2.0625,1.875,9.550000190734863,-1.3700000047683716,-1.7400000095367432,9.56999969482422,-1.2400000095367432,-1.690000057220459,44673226
1749119073240845844,0.0,1.875,0.5625,9.609999656677246,-1.2999999523162842,-1.809999942779541,9.56999969482422,-1.25,-1.690000057220459,44673240
1749119073264146061,-1.0,2.1875,0.3125,9.649999618530272,-1.25,-1.75,9.56999969482422,-1.25,-1.6799999475479126,44673264
1749119073316950454,-1.8125,2.4375,0.3125,9.630000114440918,-1.2300000190734863,-1.7599999904632568,9.579999923706056,-1.25,-1.6699999570846558,44673316
1749119073320192009,-2.9375,2.8125,0.6875,9.619999885559082,-1.2200000286102295,-1.7599999904632568,9.579999923706056,-1.25,-1.6699999570846558,44673320
1749119073322923851,-3.5,3.1875,0.8125,9.56999969482422,-1.190000057220459,-1.7699999809265137,9.579999923706056,-1.25,-1.659999966621399,44673322
1749119073344866785,-6.0,3.6875,1.75,9.510000228881836,-1.2799999713897705,-1.7400000095367432,9.579999923706056,-1.25,-1.649999976158142,44673344
1749119073367909289,-6.0,3.6875,2.0,9.600000381469728,-1.340000033378601,-1.7400000095367432,9.579999923706056,-1.25,-1.6399999856948853,44673367
1749119073381073706,-5.9375,3.625,1.8125,9.579999923706056,-1.4199999570846558,-1.7599999904632568,9.579999923706056,-1.2599999904632568,-1.6299999952316284,44673381
1749119073405140865,-5.25,3.875,1.125,9.470000267028809,-1.4900000095367432,-1.7300000190734863,9.579999923706056,-1.2599999904632568,-1.6200000047683716,44673405
1749119073423170498,-3.8125,3.4375,-0.25,9.470000267028809,-1.6399999856948853,-1.7200000286102295,9.579999923706056,-1.2599999904632568,-1.6200000047683716,44673423
1749119073449045904,-1.75,3.25,-2.4375,9.470000267028809,-1.5700000524520874,-1.6299999952316284,9.59000015258789,-1.2599999904632568,-1.6100000143051147,44673449
1749119073461113461,-0.25,2.3125,-5.0625,9.56999969482422,-1.5499999523162842,-1.6200000047683716,9.59000015258789,-1.25,-1.600000023841858,44673461
1749119073485080757,2.25,2.0,-7.375,9.59000015258789,-1.5099999904632568,-1.7000000476837158,9.59000015258789,-1.2300000190734863,-1.590000033378601,44673485
1749119073510906609,4.5,1.25,-9.125,9.739999771118164,-1.309999942779541,-1.659999966621399,9.59000015258789,-1.2100000381469729,-1.590000033378601,44673510
1749119073521172921,4.5625,1.5,-9.8125,9.770000457763672,-1.309999942779541,-1.6799999475479126,9.600000381469728,-1.1799999475479126,-1.5800000429153442,44673521
1749119073540815464,3.6875,2.125,-10.0625,9.68000030517578,-1.090000033378601,-1.6200000047683716,9.600000381469728,-1.149999976158142,-1.5700000524520874,44673540
1749119073567983154,2.875,2.3125,-9.75,9.619999885559082,-1.0199999809265137,-1.559999942779541,9.609999656677246,-1.1200000047683716,-1.5700000524520874,44673567
1749119073581188396,1.0625,2.25,-7.8125,9.56999969482422,-0.949999988079071,-1.5299999713897705,9.609999656677246,-1.100000023841858,-1.559999942779541,44673581
1749119073604792165,1.0625,1.75,-6.3125,9.630000114440918,-0.9399999976158142,-1.590000033378601,9.619999885559082,-1.0700000524520874,-1.5499999523162842,44673604
1749119073631072185,0.6875,1.375,-4.375,9.6899995803833,-0.9100000262260436,-1.649999976158142,9.619999885559082,-1.059999942779541,-1.5499999523162842,44673631
1749119073643913241,-0.125,1.6875,-2.875,9.699999809265137,-0.9399999976158142,-1.6299999952316284,9.619999885559082,-1.0399999618530271,-1.5399999618530271,44673643
1749119073670057665,-1.1875,2.125,-1.75,9.640000343322754,-1.0399999618530271,-1.6200000047683716,9.619999885559082,-1.0399999618530271,-1.5399999618530271,44673670
1749119073686057156,-1.375,2.4375,-1.25,9.619999885559082,-1.0499999523162842,-1.6399999856948853,9.630000114440918,-1.0299999713897705,-1.5299999713897705,44673686
1749119073704111700,-1.1875,2.625,-1.3125,9.670000076293944,-1.059999942779541,-1.590000033378601,9.630000114440918,-1.0299999713897705,-1.5199999809265137,44673704
1749119073735217474,-1.1875,2.75,-1.6875,9.630000114440918,-1.1100000143051147,-1.6299999952316284,9.630000114440918,-1.0199999809265137,-1.5099999904632568,44673735
1749119073746980592,-1.5,3.1875,-2.375,9.649999618530272,-1.0800000429153442,-1.6699999570846558,9.630000114440918,-1.0099999904632568,-1.5099999904632568,44673746
1749119073774879706,-2.625,3.875,-3.25,9.710000038146973,-1.059999942779541,-1.6699999570846558,9.630000114440918,-1.0,-1.5,44673774
1749119073780140380,-3.125,4.6875,-3.6875,9.699999809265137,-1.0,-1.590000033378601,9.640000343322754,-0.9900000095367432,-1.4800000190734863,44673780
1749119073801077728,-3.5625,5.0625,-3.75,9.6899995803833,-0.9800000190734864,-1.559999942779541,9.640000343322754,-0.9800000190734864,-1.4700000286102295,44673801
1749119073819897535,-3.5625,5.3125,-3.5625,9.609999656677246,-1.0,-1.5099999904632568,9.640000343322754,-0.959999978542328,-1.4500000476837158,44673819
1749119073846612819,-2.625,5.125,-3.5,9.630000114440918,-0.9900000095367432,-1.5099999904632568,9.649999618530272,-0.949999988079071,-1.440000057220459,44673846
1749119073866023455,-1.625,5.0,-3.3125,9.710000038146973,-0.8899999856948853,-1.5099999904632568,9.649999618530272,-0.9399999976158142,-1.4199999570846558,44673866
1749119073887979926,-1.625,5.4375,-2.625,9.760000228881836,-0.9300000071525574,-1.5299999713897705,9.649999618530272,-0.9300000071525574,-1.399999976158142,44673887
1749119073926168990,-1.6875,5.8125,-1.875,9.65999984741211,-0.8999999761581421,-1.4299999475479126,9.65999984741211,-0.9200000166893004,-1.3899999856948853,44673926
1749119073939985167,-2.125,6.1875,-1.375,9.539999961853027,-0.9900000095367432,-1.440000057220459,9.65999984741211,-0.9100000262260436,-1.3700000047683716,44673939
1749119073945747736,-0.4375,6.1875,-2.0,9.65999984741211,-1.149999976158142,-1.3799999952316284,9.65999984741211,-0.9100000262260436,-1.350000023841858,44673945
1749119073970727003,1.625,5.75,-3.25,9.65999984741211,-1.0499999523162842,-1.3600000143051147,9.670000076293944,-0.8999999761581421,-1.3300000429153442,44673970
1749119073981097532,2.625,5.6875,-4.25,9.65999984741211,-1.1200000047683716,-1.440000057220459,9.670000076293944,-0.8899999856948853,-1.309999942779541,44673981
1749119074005143577,3.875,5.3125,-5.625,9.75,-1.100000023841858,-1.440000057220459,9.670000076293944,-0.8799999952316284,-1.2999999523162842,44674005
1749119074031041820,4.5625,5.25,-6.5625,9.760000228881836,-1.159999966621399,-1.3899999856948853,9.68000030517578,-0.8600000143051147,-1.2799999713897705,44674031
1749119074057149872,5.6875,5.3125,-9.125,9.829999923706056,-1.0,-1.3200000524520874,9.68000030517578,-0.8399999737739563,-1.2599999904632568,44674057
1749119074065815632,5.0625,5.25,-9.8125,9.829999923706056,-0.9700000286102296,-1.309999942779541,9.6899995803833,-0.8100000023841858,-1.2400000095367432,44674065
1749119074083962018,4.25,5.0625,-10.125,9.979999542236328,-0.800000011920929,-1.3700000047683716,9.6899995803833,-0.7799999713897705,-1.2300000190734863,44674083
1749119074129973071,1.5,5.5625,-9.125,9.880000114440918,-0.6499999761581421,-1.3300000429153442,9.699999809265137,-0.75,-1.2100000381469729,44674129
1749119074139061187,-2.125,5.3125,-7.4375,9.789999961853027,-0.550000011920929,-1.2400000095367432,9.699999809265137,-0.7200000286102295,-1.190000057220459,44674139
1749119074142091985,-4.5625,5.0625,-5.5625,9.630000114440918,-0.5799999833106995,-1.2200000286102295,9.699999809265137,-0.699999988079071,-1.1799999475479126,44674142
1749119074160231837,-4.875,4.625,-5.125,9.06999969482422,-0.5600000023841858,-1.100000023841858,9.710000038146973,-0.6800000071525574,-1.159999966621399,44674160
1749119074184219634,-3.75,3.5,-3.8125,9.699999809265137,-0.5799999833106995,-1.1200000047683716,9.710000038146973,-0.6700000166893005,-1.149999976158142,44674184
1749119074207314454,-1.6875,3.375,-2.8125,10.109999656677246,-0.4600000083446502,-1.2200000286102295,9.710000038146973,-0.6600000262260437,-1.1399999856948853,44674207
1749119074250039501,-3.125,4.0,0.3125,10.5600004196167,-0.5099999904632568,-1.2400000095367432,9.710000038146973,-0.6499999761581421,-1.1299999952316284,44674250
1749119074257863562,-5.5625,5.1875,4.75,10.210000038146973,-0.5400000214576721,-1.3700000047683716,9.710000038146973,-0.6600000262260437,-1.1100000143051147,44674257
1749119074272146722,-7.125,5.4375,8.3125,9.8100004196167,-0.5699999928474426,-1.4199999570846558,9.720000267028809,-0.6899999976158142,-1.100000023841858,44674272
1749119074280119827,-7.5625,4.5,10.0,9.5,-0.75,-1.190000057220459,9.710000038146973,-0.7099999785423279,-1.0800000429153442,44674280
1749119074304781920,-7.4375,3.125,10.625,9.399999618530272,-0.6000000238418579,-1.059999942779541,9.710000038146973,-0.75,-1.0700000524520874,44674304
1749119074340851814,-10.875,2.5,10.4375,9.449999809265137,-0.75,-1.2000000476837158,9.710000038146973,-0.7799999713897705,-1.0700000524520874,44674340
1749119074349165631,-13.875,1.5625,9.6875,9.59000015258789,-0.9800000190734864,-1.2799999713897705,9.710000038146973,-0.8100000023841858,-1.059999942779541,44674349
1749119074360090685,-14.4375,1.5,7.875,9.56999969482422,-1.0,-1.2999999523162842,9.710000038146973,-0.8299999833106995,-1.059999942779541,44674360
1749119074388122283,-14.375,1.3125,5.4375,9.550000190734863,-0.959999978542328,-1.3899999856948853,9.710000038146973,-0.8399999737739563,-1.059999942779541,44674388
1749119074404953447,-14.375,0.9375,3.3125,9.510000228881836,-0.9900000095367432,-1.3799999952316284,9.710000038146973,-0.8500000238418579,-1.0700000524520874,44674404
1749119074430203137,-13.4375,0.0,1.75,9.520000457763672,-0.949999988079071,-1.3600000143051147,9.699999809265137,-0.8600000143051147,-1.0800000429153442,44674430
1749119074441180366,-13.3125,-0.25,-0.5625,9.550000190734863,-0.9100000262260436,-1.309999942779541,9.699999809265137,-0.8500000238418579,-1.090000033378601,44674441
1749119074493119000,-13.6875,-0.3125,-1.1875,9.630000114440918,-0.8700000047683716,-1.25,9.699999809265137,-0.8399999737739563,-1.100000023841858,44674493
1749119074514082774,-18.9375,-0.8125,-2.0625,9.739999771118164,-0.7599999904632568,-1.059999942779541,9.699999809265137,-0.8299999833106995,-1.1100000143051147,44674514
1749119074515784347,-23.9375,-0.6875,-1.875,9.729999542236328,-0.9300000071525574,-0.9800000190734864,9.699999809265137,-0.8199999928474426,-1.1100000143051147,44674515
1749119074525073790,-23.5,-1.0625,-2.3125,9.699999809265137,-0.8700000047683716,-0.8600000143051147,9.699999809265137,-0.800000011920929,-1.1200000047683716,44674525
1749119074540072856,-21.1875,-1.0,-3.25,9.8100004196167,-0.8799999952316284,-0.8199999928474426,9.699999809265137,-0.7799999713897705,-1.1299999952316284,44674540
1749119074611084247,-17.4375,-0.75,-3.5,9.84000015258789,-0.9100000262260436,-0.7099999785423279,9.699999809265137,-0.7699999809265137,-1.1299999952316284,44674611
1749119074634019162,-10.9375,-0.25,-4.3125,9.8100004196167,-0.8299999833106995,-0.6800000071525574,9.710000038146973,-0.75,-1.1299999952316284,44674634
1749119074651224001,-4.3125,0.6875,-5.5625,9.789999961853027,-0.8999999761581421,-0.7900000214576721,9.710000038146973,-0.7300000190734863,-1.1200000047683716,44674651
1749119074660033518,1.8125,0.8125,-6.3125,9.8100004196167,-0.8299999833106995,-0.9399999976158142,9.710000038146973,-0.7200000286102295,-1.1100000143051147,44674660
1749119074675107250,6.1875,1.1875,-6.6875,9.800000190734863,-0.7599999904632568,-1.159999966621399,9.710000038146973,-0.699999988079071,-1.100000023841858,44674675
1749119074681716847,9.4375,0.1875,-6.0,9.739999771118164,-0.6399999856948853,-1.2899999618530271,9.720000267028809,-0.6800000071525574,-1.100000023841858,44674681
1749119074690985865,16.25,-1.1875,-5.25,9.619999885559082,-0.8299999833106995,-1.350000023841858,9.720000267028809,-0.6700000166893005,-1.100000023841858,44674690
1749119074706762316,25.875,-1.125,-6.4375,9.550000190734863,-0.4900000095367431,-1.149999976158142,9.720000267028809,-0.6600000262260437,-1.100000023841858,44674706
1749119074722187646,29.0,0.125,-8.375,9.489999771118164,-0.0299999993294477,-1.1399999856948853,9.720000267028809,-0.6399999856948853,-1.090000033378601,44674722
1749119074747151829,27.0625,-0.0625,-9.8125,9.390000343322754,0.6000000238418579,-1.409999966621399,9.720000267028809,-0.6200000047683716,-1.0800000429153442,44674747
1749119074761007262,19.375,-0.9375,-11.75,9.5,0.5699999928474426,-1.590000033378601,9.720000267028809,-0.5899999737739563,-1.0800000429153442,44674761
1749119074779919686,11.625,-2.25,-13.8125,9.739999771118164,-0.2599999904632568,-1.2000000476837158,9.720000267028809,-0.550000011920929,-1.090000033378601,44674779
1749119074803856419,18.4375,-1.75,-16.1875,9.720000267028809,-0.3499999940395355,-0.9300000071525574,9.729999542236328,-0.5099999904632568,-1.090000033378601,44674803
1749119074821961180,24.0,-2.125,-18.6875,9.720000267028809,-0.270000010728836,-0.9200000166893004,9.729999542236328,-0.4600000083446502,-1.090000033378601,44674821
1749119074846924539,29.1875,-3.875,-20.8125,9.68000030517578,-0.1800000071525573,-1.0199999809265137,9.729999542236328,-0.4000000059604645,-1.100000023841858,44674846
1749119074864290801,37.0,-5.0625,-24.375,9.670000076293944,0.4600000083446502,-1.2799999713897705,9.729999542236328,-0.3300000131130218,-1.1100000143051147,44674864
1749119074905022337,40.6875,-6.6875,-28.4375,9.81999969482422,0.3300000131130218,-1.309999942779541,9.729999542236328,-0.2599999904632568,-1.1299999952316284,44674905
1749119074906822516,42.5625,-7.4375,-28.9375,9.880000114440918,0.1899999976158142,-0.9200000166893004,9.729999542236328,-0.1800000071525573,-1.149999976158142,44674906
1749119074920971130,41.6875,-6.875,-29.625,9.90999984741211,0.8899999856948853,-0.8100000023841858,9.729999542236328,-0.1000000014901161,-1.1699999570846558,44674920
1749119074956826485,34.6875,-7.375,-32.4375,9.960000038146973,0.7900000214576721,-1.1399999856948853,9.729999542236328,-0.0099999997764825,-1.2000000476837158,44674956
1749119074973980104,35.9375,-7.5,-36.0,9.8100004196167,-0.2399999946355819,-0.8799999952316284,9.720000267028809,0.0799999982118606,-1.2200000286102295,44674973
1749119074980993318,45.6875,-6.625,-40.1875,9.640000343322754,0.1299999952316284,-0.75,9.720000267028809,0.1899999976158142,-1.2400000095367432,44674980
1749119075007022939,46.5,-7.625,-43.8125,9.670000076293944,0.2300000041723251,-1.1799999475479126,9.710000038146973,0.3100000023841858,-1.2699999809265137,44675007
1749119075031150444,43.75,-9.4375,-44.25,9.609999656677246,0.449999988079071,-1.0099999904632568,9.699999809265137,0.4399999976158142,-1.309999942779541,44675031
1749119075044948315,38.3125,-10.3125,-43.3125,9.489999771118164,0.5099999904632568,-1.100000023841858,9.6899995803833,0.5600000023841858,-1.350000023841858,44675044
1749119075060053113,32.0,-10.25,-41.375,9.300000190734863,-0.1000000014901161,-1.3700000047683716,9.68000030517578,0.6800000071525574,-1.3899999856948853,44675060
1749119075081809821,27.875,-10.125,-36.9375,9.3100004196167,-0.5,-1.409999966621399,9.65999984741211,0.7900000214576721,-1.4299999475479126,44675081
1749119075113837341,20.875,-9.0,-29.25,9.420000076293944,-0.5400000214576721,-1.5299999713897705,9.649999618530272,0.8799999952316284,-1.4600000381469729,44675113
1749119075119863973,8.1875,-7.875,-16.6875,9.420000076293944,-1.090000033378601,-1.649999976158142,9.640000343322754,0.9399999976158142,-1.4900000095367432,44675119
1749119075147113001,-2.5,-6.375,-1.25,9.149999618530272,-2.400000095367432,-2.049999952316284,9.630000114440918,0.959999978542328,-1.5199999809265137,44675147
1749119075160182608,18.375,-16.625,5.0,9.359999656677246,2.470000028610229,-3.390000104904175,9.630000114440918,0.9399999976158142,-1.559999942779541,44675160
1749119075185173682,6.1875,-16.8125,-0.0625,9.84000015258789,1.0,-1.9700000286102293,9.619999885559082,0.9300000071525574,-1.6200000047683716,44675185
1749119075204948568,5.625,-13.1875,3.4375,9.5600004196167,1.8899999856948853,-0.9900000095367432,9.609999656677246,0.9200000166893004,-1.6699999570846558,44675204
1749119075231121769,3.4375,-9.875,5.0,9.699999809265137,1.590000033378601,-1.1399999856948853,9.609999656677246,0.8999999761581421,-1.7000000476837158,44675231
1749119075242038345,5.875,-10.1875,7.3125,9.329999923706056,1.0399999618530271,-1.440000057220459,9.609999656677246,0.8799999952316284,-1.7400000095367432,44675242
1749119075259013473,7.625,-12.5,10.5,9.529999732971191,1.2599999904632568,-1.440000057220459,9.600000381469728,0.8399999737739563,-1.7799999713897705,44675259
1749119075284910195,4.5625,-14.6875,14.5625,10.31999969482422,0.7400000095367432,-1.159999966621399,9.600000381469728,0.7900000214576721,-1.830000042915344,44675284
1749119075299882083,2.3125,-15.625,17.375,10.15999984741211,0.6499999761581421,-1.7999999523162842,9.59000015258789,0.7400000095367432,-1.8799999952316284,44675299
1749119075325193591,-2.25,-15.875,16.3125,9.949999809265137,-0.209999993443489,-2.25,9.579999923706056,0.6899999976158142,-1.9299999475479128,44675325
1749119075350054010,0.6875,-15.625,13.125,10.15999984741211,0.0799999982118606,-2.380000114440918,9.579999923706056,0.6399999856948853,-1.9800000190734863,44675350
1749119075372060865,2.75,-12.6875,9.5,9.770000457763672,0.2000000029802322,-2.539999961853028,9.56999969482422,0.6000000238418579,-2.0199999809265137,44675372
1749119075381157750,4.5,-11.75,8.4375,9.550000190734863,0.4799999892711639,-2.380000114440918,9.5600004196167,0.5699999928474426,-2.059999942779541,44675381
1749119075404984658,4.4375,-11.875,9.125,9.630000114440918,0.5799999833106995,-2.140000104904175,9.5600004196167,0.5400000214576721,-2.0999999046325684,44675404
1749119075425043584,3.625,-12.5,10.375,9.720000267028809,0.7599999904632568,-1.7999999523162842,9.550000190734863,0.5099999904632568,-2.140000104904175,44675425
1749119075440050464,2.8125,-14.4375,12.1875,9.640000343322754,0.449999988079071,-1.8899999856948853,9.539999961853027,0.4699999988079071,-2.190000057220459,44675440
1749119075460939910,4.125,-15.4375,13.5,9.539999961853027,0.7099999785423279,-2.130000114440918,9.529999732971191,0.4199999868869781,-2.240000009536743,44675460
1749119075479929108,5.125,-14.8125,15.625,9.5,0.5,-2.5199999809265137,9.520000457763672,0.3700000047683716,-2.289999961853028,44675479
1749119075500970148,4.1875,-14.75,16.125,9.510000228881836,0.1500000059604644,-2.7799999713897705,9.510000228881836,0.3100000023841858,-2.3299999237060547,44675500
1749119075521023492,3.0,-14.25,15.375,9.550000190734863,-0.1700000017881393,-2.6700000762939453,9.5,0.2599999904632568,-2.380000114440918,44675521
1749119075549997744,4.1875,-14.8125,13.75,9.720000267028809,-0.209999993443489,-2.3499999046325684,9.489999771118164,0.209999993443489,-2.430000066757202,44675549
1749119075570926144,7.0625,-15.8125,11.0625,9.59000015258789,-0.0599999986588954,-2.25,9.479999542236328,0.1700000017881393,-2.4800000190734863,44675570
1749119075580678583,8.4375,-17.3125,8.5,9.420000076293944,0.0,-2.470000028610229,9.470000267028809,0.1299999952316284,-2.5299999713897705,44675580
1749119075605928909,10.625,-18.6875,8.0,9.3100004196167,-0.1000000014901161,-2.7799999713897705,9.449999809265137,0.1000000014901161,-2.5899999141693115,44675605
1749119075622201001,13.625,-20.3125,7.25,9.31999969482422,-0.1899999976158142,-2.859999895095825,9.43000030517578,0.0599999986588954,-2.6600000858306885,44675622
1749119075641060080,13.625,-19.1875,5.5625,9.390000343322754,-0.2300000041723251,-2.7699999809265137,9.420000076293944,0.0299999993294477,-2.720000028610229,44675641
1749119075664838310,14.875,-18.875,5.5625,9.43000030517578,0.2399999946355819,-2.7100000381469727,9.399999618530272,0.0,-2.7799999713897705,44675664
1749119075681795975,13.3125,-19.625,7.9375,9.420000076293944,0.3700000047683716,-2.75,9.380000114440918,-0.0299999993294477,-2.8399999141693115,44675681
1749119075705991385,12.3125,-22.125,11.75,9.399999618530272,0.2599999904632568,-2.809999942779541,9.359999656677246,-0.0700000002980232,-2.9100000858306885,44675705
1749119075720262934,11.3125,-23.5625,14.625,9.420000076293944,0.2000000029802322,-2.880000114440918,9.34000015258789,-0.1199999973177909,-2.9800000190734863,44675720
1749119075746185435,9.375,-24.125,17.3125,9.479999542236328,0.3300000131130218,-2.819999933242798,9.3100004196167,-0.1800000071525573,-3.049999952316284,44675746
1749119075759849263,5.375,-23.75,21.25,9.609999656677246,0.3600000143051147,-3.009999990463257,9.289999961853027,-0.2300000041723251,-3.119999885559082,44675759
1749119075782152725,-0.25,-22.0625,24.3125,9.420000076293944,0.209999993443489,-3.400000095367432,9.260000228881836,-0.3000000119209289,-3.180000066757202,44675782
1749119075801670900,-2.9375,-19.25,27.6875,9.40999984741211,0.1000000014901161,-3.470000028610229,9.239999771118164,-0.3799999952316284,-3.25,44675801
1749119075820353886,-7.0625,-14.75,28.4375,9.220000267028809,-0.8500000238418579,-3.75,9.220000267028809,-0.4600000083446502,-3.299999952316284,44675820
1749119075849920814,-6.375,-10.9375,25.5625,9.020000457763672,-0.9800000190734864,-3.680000066757202,9.199999809265137,-0.5400000214576721,-3.3399999141693115,44675849
1749119075875470440,-6.6875,-8.1875,20.75,8.819999694824219,-1.5499999523162842,-3.680000066757202,9.18000030517578,-0.6000000238418579,-3.359999895095825,44675875
1749119075889886945,-5.6875,-6.875,14.375,8.8100004196167,-1.340000033378601,-3.539999961853028,9.170000076293944,-0.6399999856948853,-3.390000104904175,44675889
1749119075903173790,-2.8125,-6.0,6.625,8.899999618530273,-1.6200000047683716,-3.5799999237060547,9.15999984741211,-0.6600000262260437,-3.4100000858306885,44675903
1749119075921124446,-0.1875,-5.875,0.1875,8.770000457763672,-1.3899999856948853,-3.5899999141693115,9.15999984741211,-0.6700000166893005,-3.430000066757202,44675921
1749119075947223290,0.375,-5.5,-4.125,9.140000343322754,-1.059999942779541,-3.619999885559082,9.149999618530272,-0.6800000071525574,-3.450000047683716,44675947
1749119075963007365,1.0625,-4.625,-7.5625,9.5,-0.7300000190734863,-3.569999933242798,9.140000343322754,-0.6600000262260437,-3.4600000381469727,44675963
1749119075989103773,0.1875,-3.3125,-7.375,9.210000038146973,-0.6600000262260437,-3.640000104904175,9.140000343322754,-0.6299999952316284,-3.4800000190734863,44675989
1749119076002779716,0.3125,-2.875,-7.3125,8.960000038146973,-0.7400000095367432,-3.559999942779541,9.140000343322754,-0.6100000143051147,-3.4800000190734863,44676002
1749119076027985253,0.375,-3.0,-6.8125,9.0,-0.7900000214576721,-3.569999933242798,9.140000343322754,-0.5899999737739563,-3.490000009536743,44676027
1749119076043868325,-0.5,-3.3125,-6.1875,9.010000228881836,-0.699999988079071,-3.490000009536743,9.130000114440918,-0.5699999928474426,-3.5,44676043
1749119076065772640,-4.1875,-3.4375,-4.5,9.010000228881836,-0.5,-3.4600000381469727,9.130000114440918,-0.550000011920929,-3.5199999809265137,44676065
1749119076090122562,-6.6875,-4.8125,-2.9375,8.770000457763672,-0.7799999713897705,-3.7300000190734863,9.130000114440918,-0.5400000214576721,-3.5299999713897705,44676090
1749119076103027698,-4.75,-5.1875,-3.4375,8.949999809265137,-0.5,-3.690000057220459,9.119999885559082,-0.5199999809265137,-3.549999952316284,44676103
1749119076123232618,-7.4375,-1.75,-3.0625,9.600000381469728,0.0199999995529651,-3.4800000190734863,9.119999885559082,-0.5,-3.559999942779541,44676123
1749119076148314986,-10.5,-0.9375,-0.75,9.31999969482422,-0.3100000023841858,-3.609999895095825,9.109999656677246,-0.4900000095367431,-3.569999933242798,44676148
1749119076161039778,-10.375,-0.1875,0.3125,9.220000267028809,-0.6000000238418579,-3.680000066757202,9.109999656677246,-0.4799999892711639,-3.569999933242798,44676161
1749119076181303976,-10.75,0.1875,0.0625,9.170000076293944,-0.5,-3.75,9.109999656677246,-0.4600000083446502,-3.569999933242798,44676181
1749119076200009599,-10.25,0.75,0.0,8.989999771118164,-0.5099999904632568,-3.690000057220459,9.109999656677246,-0.449999988079071,-3.569999933242798,44676200
1749119076222097120,-8.375,-0.125,-1.0625,8.960000038146973,-0.699999988079071,-3.7699999809265137,9.109999656677246,-0.4399999976158142,-3.5799999237060547,44676222
1749119076247194222,-7.1875,0.875,-2.125,9.15999984741211,-0.4699999988079071,-3.609999895095825,9.109999656677246,-0.4300000071525574,-3.5799999237060547,44676247
1749119076261183461,-6.5625,1.4375,-2.3125,9.109999656677246,-0.6100000143051147,-3.569999933242798,9.109999656677246,-0.4199999868869781,-3.5799999237060547,44676261
1749119076286078080,-5.0625,0.5625,-2.5625,9.109999656677246,-0.4600000083446502,-3.609999895095825,9.119999885559082,-0.4000000059604645,-3.5799999237060547,44676286
1749119076309952285,-4.25,1.0625,-3.0625,9.199999809265137,-0.4399999976158142,-3.680000066757202,9.119999885559082,-0.3899999856948852,-3.569999933242798,44676309
1749119076322113361,-4.8125,1.5,-2.875,9.15999984741211,-0.3400000035762787,-3.5899999141693115,9.119999885559082,-0.3700000047683716,-3.569999933242798,44676322
1749119076346051756,-4.375,1.375,-3.9375,9.06999969482422,-0.5199999809265137,-3.559999942779541,9.119999885559082,-0.3600000143051147,-3.569999933242798,44676346
1749119076365044761,-3.5,1.1875,-5.3125,9.140000343322754,-0.550000011920929,-3.670000076293945,9.119999885559082,-0.3400000035762787,-3.559999942779541,44676365
1749119076379880594,-3.625,1.75,-5.875,9.130000114440918,-0.4399999976158142,-3.5999999046325684,9.119999885559082,-0.3199999928474426,-3.559999942779541,44676379
1749119076406237562,-3.8125,2.1875,-7.125,9.119999885559082,-0.3899999856948852,-3.5899999141693115,9.130000114440918,-0.2899999916553497,-3.549999952316284,44676406
1749119076420099195,-2.5,2.5625,-8.375,9.109999656677246,-0.3499999940395355,-3.509999990463257,9.130000114440918,-0.270000010728836,-3.549999952316284,44676420
1749119076442998242,-1.625,2.8125,-9.625,9.050000190734863,-0.4300000071525574,-3.569999933242798,9.140000343322754,-0.2399999946355819,-3.539999961853028,44676442
1749119076471130952,0.0625,2.625,-11.125,9.09000015258789,-0.4600000083446502,-3.569999933242798,9.140000343322754,-0.2000000029802322,-3.5299999713897705,44676471
1749119076482896806,2.25,2.25,-12.125,9.050000190734863,-0.2800000011920929,-3.5299999713897705,9.140000343322754,-0.1700000017881393,-3.5199999809265137,44676482
1749119076501159629,4.0,1.8125,-12.125,9.100000381469728,-0.0799999982118606,-3.5,9.149999618530272,-0.1400000005960464,-3.5199999809265137,44676501
1749119076528083769,5.3125,1.5625,-11.8125,9.100000381469728,-0.0099999997764825,-3.470000028610229,9.149999618530272,-0.1099999994039535,-3.509999990463257,44676528
1749119076545963097,6.3125,1.125,-11.75,9.0600004196167,-0.0399999991059303,-3.440000057220459,9.149999618530272,-0.0799999982118606,-3.509999990463257,44676545
1749119076568504779,6.5625,0.875,-11.0,9.329999923706056,-0.0299999993294477,-3.7899999618530273,9.149999618530272,-0.050000000745058,-3.509999990463257,44676568
1749119076589820774,6.6875,2.25,-10.5,9.270000457763672,0.209999993443489,-3.559999942779541,9.149999618530272,-0.0199999995529651,-3.5,44676589
1749119076620099802,5.5,3.5,-9.0625,9.140000343322754,-0.0599999986588954,-3.660000085830689,9.15999984741211,0.0,-3.490000009536743,44676620
1749119076625690905,6.3125,4.9375,-7.875,9.18000030517578,0.3000000119209289,-3.5899999141693115,9.15999984741211,0.0099999997764825,-3.4800000190734863,44676625
1749119076638980623,2.8125,5.8125,-5.8125,9.119999885559082,0.0799999982118606,-3.4800000190734863,9.170000076293944,0.0299999993294477,-3.4600000381469727,44676638
1749119076663278957,2.0,6.25,-4.6875,9.09000015258789,-0.0199999995529651,-3.5299999713897705,9.170000076293944,0.0399999991059303,-3.440000057220459,44676663
1749119076684050445,2.375,6.5625,-4.1875,9.210000038146973,0.1500000059604644,-3.5299999713897705,9.18000030517578,0.050000000745058,-3.4200000762939453,44676684
1749119076704496611,1.0625,7.125,-3.5,9.140000343322754,0.0299999993294477,-3.490000009536743,9.1899995803833,0.0599999986588954,-3.400000095367432,44676704
1749119076724151324,0.5625,7.5625,-3.4375,9.140000343322754,-0.1199999973177909,-3.450000047683716,9.199999809265137,0.0700000002980232,-3.380000114440918,44676724
1749119076749193348,1.6875,7.75,-4.1875,9.170000076293944,-0.050000000745058,-3.390000104904175,9.210000038146973,0.0799999982118606,-3.359999895095825,44676749
1749119076759177637,1.1875,7.75,-4.8125,9.229999542236328,0.0399999991059303,-3.3399999141693115,9.220000267028809,0.0900000035762786,-3.3299999237060547,44676759
1749119076785051595,1.4375,7.875,-5.0625,9.260000228881836,0.0399999991059303,-3.3499999046325684,9.220000267028809,0.1000000014901161,-3.309999942779541,44676785
1749119076803068699,2.375,7.875,-5.3125,9.270000457763672,0.1199999973177909,-3.289999961853028,9.229999542236328,0.1199999973177909,-3.289999961853028,44676803
1749119076820940544,2.125,7.9375,-5.1875,9.34000015258789,0.1099999994039535,-3.309999942779541,9.239999771118164,0.1299999952316284,-3.259999990463257,44676820
1749119076847061377,2.875,8.3125,-4.875,9.260000228881836,0.1099999994039535,-3.299999952316284,9.25,0.1400000005960464,-3.240000009536743,44676847
1749119076862230825,2.3125,8.4375,-5.3125,9.170000076293944,0.1299999952316284,-3.240000009536743,9.260000228881836,0.1599999964237213,-3.2100000381469727,44676862
1749119076888004312,1.8125,8.75,-5.0,9.300000190734863,0.1800000071525573,-3.190000057220459,9.270000457763672,0.1700000017881393,-3.180000066757202,44676888
1749119076908182436,2.3125,8.8125,-4.75,9.260000228881836,0.2599999904632568,-3.180000066757202,9.279999732971191,0.1800000071525573,-3.1600000858306885,44676908
1749119076919964010,1.8125,8.75,-4.0,9.229999542236328,0.25,-3.2100000381469727,9.289999961853027,0.1899999976158142,-3.130000114440918,44676919
1749119076944068263,0.25,8.9375,-2.6875,9.260000228881836,0.3700000047683716,-3.190000057220459,9.289999961853027,0.2000000029802322,-3.0999999046325684,44676944
1749119076962937095,-1.5625,9.125,-1.3125,9.220000267028809,0.2399999946355819,-3.0799999237060547,9.300000190734863,0.209999993443489,-3.069999933242798,44676962
1749119076989161444,-1.75,9.125,-0.1875,9.3100004196167,0.2300000041723251,-3.049999952316284,9.3100004196167,0.209999993443489,-3.039999961853028,44676989
1749119077001179507,-2.75,9.1875,0.75,9.350000381469728,0.270000010728836,-2.970000028610229,9.31999969482422,0.209999993443489,-3.0199999809265137,44677001
1749119077023098938,-3.8125,9.25,1.375,9.460000038146973,0.1700000017881393,-3.039999961853028,9.329999923706056,0.209999993443489,-2.990000009536743,44677023
1749119077040956009,-2.875,9.75,1.625,9.510000228881836,0.2599999904632568,-3.150000095367432,9.34000015258789,0.209999993443489,-2.9600000381469727,44677040
1749119077064084422,-3.9375,11.25,2.6875,9.40999984741211,0.3100000023841858,-3.150000095367432,9.350000381469728,0.209999993443489,-2.9200000762939453,44677064
1749119077092277654,-5.625,13.0625,3.9375,9.4399995803833,0.1899999976158142,-3.220000028610229,9.359999656677246,0.2000000029802322,-2.890000104904175,44677092
1749119077105876514,-5.6875,14.875,4.4375,9.399999618530272,0.2000000029802322,-3.0299999713897705,9.380000114440918,0.1899999976158142,-2.8399999141693115,44677105
1749119077144125492,-6.875,16.0,5.0,9.350000381469728,0.2000000029802322,-2.809999942779541,9.390000343322754,0.1899999976158142,-2.789999961853028,44677144
1749119077167950284,-8.5,15.9375,5.25,9.399999618530272,0.0199999995529651,-2.700000047683716,9.40999984741211,0.1800000071525573,-2.740000009536743,44677167
1749119077194060371,-8.1875,15.625,4.875,9.420000076293944,-0.0199999995529651,-2.680000066757202,9.420000076293944,0.1700000017881393,-2.690000057220459,44677194
1749119077219001953,-7.5,15.125,3.5,9.399999618530272,-0.1400000005960464,-2.650000095367432,9.4399995803833,0.1599999964237213,-2.640000104904175,44677219
1749119077237023444,-6.125,14.5625,1.875,9.43000030517578,-0.1000000014901161,-2.549999952316284,9.449999809265137,0.1599999964237213,-2.5999999046325684,44677237
1749119077243950935,-5.0625,14.0,0.3125,9.399999618530272,0.050000000745058,-2.4800000190734863,9.460000038146973,0.1599999964237213,-2.549999952316284,44677243
1749119077252911730,-5.625,13.0625,-0.75,9.460000038146973,-0.0099999997764825,-2.4600000381469727,9.470000267028809,0.1599999964237213,-2.509999990463257,44677252
1749119077260044852,-5.4375,12.0625,-1.8125,9.470000267028809,-0.050000000745058,-2.4600000381469727,9.479999542236328,0.1700000017881393,-2.470000028610229,44677260
1749119077281886156,-4.6875,11.375,-3.375,9.470000267028809,-0.0599999986588954,-2.4100000858306885,9.489999771118164,0.1800000071525573,-2.430000066757202,44677281
1749119077305956757,-4.25,10.25,-4.375,9.489999771118164,0.0700000002980232,-2.3499999046325684,9.5,0.1899999976158142,-2.400000095367432,44677305
1749119077329117597,-4.1875,9.5625,-5.25,9.489999771118164,0.1400000005960464,-2.2699999809265137,9.510000228881836,0.209999993443489,-2.359999895095825,44677329
1749119077343841526,-4.375,8.75,-5.3125,9.539999961853027,0.3700000047683716,-2.309999942779541,9.520000457763672,0.2300000041723251,-2.3299999237060547,44677343
1749119077363007789,-5.8125,8.125,-4.1875,9.5,0.3100000023841858,-2.309999942779541,9.520000457763672,0.25,-2.309999942779541,44677363
1749119077390087178,-5.625,7.8125,-3.3125,9.510000228881836,0.3100000023841858,-2.3499999046325684,9.529999732971191,0.270000010728836,-2.2799999713897705,44677390
1749119077400121230,-4.9375,7.375,-2.3125,9.520000457763672,0.3600000143051147,-2.25,9.529999732971191,0.2800000011920929,-2.259999990463257,44677400
1749119077425819242,-4.5625,7.1875,-1.3125,9.520000457763672,0.3400000035762787,-2.240000009536743,9.539999961853027,0.2899999916553497,-2.2300000190734863,44677425
1749119077443942660,-4.125,6.75,-0.0625,9.5600004196167,0.4600000083446502,-2.1700000762939453,9.539999961853027,0.2899999916553497,-2.2100000381469727,44677443
1749119077468821155,-4.8125,6.6875,1.375,9.529999732971191,0.3000000119209289,-2.25,9.550000190734863,0.2899999916553497,-2.190000057220459,44677468
1749119077486128079,-4.75,6.4375,2.1875,9.539999961853027,0.2899999916553497,-2.220000028610229,9.550000190734863,0.2899999916553497,-2.1700000762939453,44677486
1749119077504327183,-4.4375,6.3125,2.4375,9.520000457763672,0.1800000071525573,-2.190000057220459,9.5600004196167,0.2899999916553497,-2.150000095367432,44677504
1749119077529285832,-3.875,6.1875,2.1875,9.539999961853027,0.209999993443489,-2.1700000762939453,9.5600004196167,0.2800000011920929,-2.130000114440918,44677529
1749119077543105696,-3.125,5.875,1.8125,9.619999885559082,0.2300000041723251,-2.119999885559082,9.56999969482422,0.2800000011920929,-2.109999895095825,44677543
1749119077567934711,-3.5,6.0625,1.3125,9.640000343322754,0.1700000017881393,-2.130000114440918,9.56999969482422,0.270000010728836,-2.0899999141693115,44677567
1749119077583061277,-3.8125,6.125,0.8125,9.68000030517578,0.1000000014901161,-2.190000057220459,9.579999923706056,0.270000010728836,-2.069999933242798,44677583
1749119077606251068,-3.25,6.1875,-0.125,9.65999984741211,0.1199999973177909,-2.140000104904175,9.579999923706056,0.270000010728836,-2.049999952316284,44677606
1749119077620963253,-3.375,6.4375,-1.3125,9.619999885559082,0.050000000745058,-2.150000095367432,9.579999923706056,0.2800000011920929,-2.0299999713897705,44677620
1749119077642130819,-2.625,6.5625,-2.9375,9.600000381469728,0.0599999986588954,-2.069999933242798,9.59000015258789,0.2800000011920929,-2.009999990463257,44677642
1749119077662962703,-1.3125,6.5625,-4.6875,9.600000381469728,0.1599999964237213,-2.0199999809265137,9.59000015258789,0.3000000119209289,-1.9900000095367432,44677662
1749119077683976369,-0.9375,6.875,-5.9375,9.529999732971191,0.2199999988079071,-2.0999999046325684,9.600000381469728,0.3100000023841858,-1.9700000286102293,44677683
1749119077699770290,-1.8125,6.8125,-7.375,9.550000190734863,0.2899999916553497,-1.9900000095367432,9.600000381469728,0.3400000035762787,-1.940000057220459,44677699
1749119077725919770,-2.25,6.625,-7.75,9.579999923706056,0.3100000023841858,-1.940000057220459,9.600000381469728,0.3600000143051147,-1.919999957084656,44677725
1749119077741003883,-2.8125,6.0,-7.75,9.619999885559082,0.3700000047683716,-1.8899999856948853,9.609999656677246,0.3899999856948852,-1.899999976158142,44677741
1749119077768215304,-2.5625,5.25,-7.5,9.619999885559082,0.5299999713897705,-1.7899999618530271,9.609999656677246,0.4099999964237213,-1.8799999952316284,44677768
1749119077781031783,-2.5625,4.5625,-6.4375,9.579999923706056,0.4300000071525574,-1.809999942779541,9.609999656677246,0.4399999976158142,-1.870000004768372,44677781
1749119077805089501,-1.1875,4.0625,-5.6875,9.579999923706056,0.5799999833106995,-1.7799999713897705,9.609999656677246,0.4600000083446502,-1.850000023841858,44677805
1749119077822858001,-0.25,3.4375,-4.8125,9.550000190734863,0.5199999809265137,-1.840000033378601,9.609999656677246,0.4799999892711639,-1.840000033378601,44677822
1749119077840952533,2.1875,3.0,-4.25,9.56999969482422,0.6200000047683716,-1.8899999856948853,9.619999885559082,0.4900000095367431,-1.830000042915344,44677840
1749119077867313220,2.5625,2.75,-3.8125,9.68000030517578,0.6100000143051147,-1.8600000143051147,9.619999885559082,0.5,-1.8200000524520876,44677867
1749119077895078209,2.5,2.875,-3.3125,9.609999656677246,0.6399999856948853,-1.8200000524520876,9.619999885559082,0.5099999904632568,-1.809999942779541,44677895
1749119077913982205,3.5625,2.75,-3.6875,9.640000343322754,0.4799999892711639,-1.7799999713897705,9.619999885559082,0.5199999809265137,-1.809999942779541,44677913
1749119077919975557,4.125,2.625,-4.0,9.649999618530272,0.5199999809265137,-1.7599999904632568,9.619999885559082,0.5299999713897705,-1.7999999523162842,44677919
1749119077946195124,4.1875,2.75,-4.5625,9.65999984741211,0.449999988079071,-1.9299999475479128,9.619999885559082,0.5400000214576721,-1.7899999618530271,44677946
1749119077964109603,5.4375,2.5625,-4.875,9.789999961853027,0.5199999809265137,-1.809999942779541,9.619999885559082,0.550000011920929,-1.7799999713897705,44677964
1749119077983167388,5.0,3.125,-5.625,9.779999732971191,0.4099999964237213,-1.840000033378601,9.619999885559082,0.5699999928474426,-1.7699999809265137,44677983
1749119078006098605,5.0,3.0625,-6.5,9.729999542236328,0.3899999856948852,-1.7999999523162842,9.619999885559082,0.5799999833106995,-1.7599999904632568,44678006
1749119078023918611,7.0625,3.25,-7.9375,9.670000076293944,0.3600000143051147,-1.7799999713897705,9.619999885559082,0.6000000238418579,-1.7599999904632568,44678023
1749119078050155493,7.1875,3.4375,-9.625,9.65999984741211,0.4699999988079071,-1.8200000524520876,9.619999885559082,0.6299999952316284,-1.75,44678050
1749119078068010865,6.875,3.3125,-11.125,9.800000190734863,0.5799999833106995,-1.7400000095367432,9.619999885559082,0.6600000262260437,-1.7400000095367432,44678068
1749119078080188030,5.5625,3.5,-12.3125,9.869999885559082,0.5,-1.7400000095367432,9.619999885559082,0.6899999976158142,-1.7300000190734863,44678080
1749119078105856506,5.9375,4.0,-13.625,9.880000114440918,0.6399999856948853,-1.830000042915344,9.619999885559082,0.7300000190734863,-1.7200000286102295,44678105
1749119078119874944,3.4375,4.375,-15.1875,9.859999656677246,0.6800000071525574,-1.7899999618530271,9.619999885559082,0.7699999809265137,-1.7000000476837158,44678119
1749119078139868798,1.3125,4.625,-16.75,9.829999923706056,0.5600000023841858,-1.830000042915344,9.619999885559082,0.8199999928474426,-1.690000057220459,44678139
1749119078166858232,1.5625,4.75,-18.875,9.890000343322754,0.6800000071525574,-1.7200000286102295,9.619999885559082,0.8799999952316284,-1.6799999475479126,44678166
1749119078180046644,0.5,4.6875,-20.375,9.869999885559082,0.6100000143051147,-1.7899999618530271,9.609999656677246,0.9399999976158142,-1.659999966621399,44678180
1749119078200979831,3.75,4.125,-22.3125,9.829999923706056,0.4399999976158142,-1.8799999952316284,9.609999656677246,0.9900000095367432,-1.649999976158142,44678200
1749119078227058755,14.6875,0.0,-24.3125,9.829999923706056,0.5600000023841858,-1.7999999523162842,9.600000381469728,1.0499999523162842,-1.659999966621399,44678227
1749119078241185654,26.75,-2.875,-25.0625,9.9399995803833,0.6899999976158142,-1.649999976158142,9.59000015258789,1.1100000143051147,-1.6799999475479126,44678241
1749119078260830198,38.6875,1.9375,-28.25,9.619999885559082,1.1100000143051147,-1.8899999856948853,9.579999923706056,1.1699999570846558,-1.690000057220459,44678260
1749119078286715619,45.5,3.75,-31.75,9.510000228881836,2.2699999809265137,-1.919999957084656,9.56999969482422,1.2400000095367432,-1.690000057220459,44678286
1749119078305216705,29.5,6.75,-30.1875,9.140000343322754,1.6799999475479126,-1.830000042915344,9.5600004196167,1.3200000524520874,-1.690000057220459,44678305
1749119078329227548,28.3125,6.0625,-26.3125,9.68000030517578,2.0,-1.399999976158142,9.550000190734863,1.399999976158142,-1.6799999475479126,44678329
1749119078340909560,28.125,8.75,-21.8125,9.239999771118164,0.4900000095367431,-1.6699999570846558,9.550000190734863,1.4600000381469729,-1.6699999570846558,44678340
1749119078360044894,33.6875,5.9375,-12.0,8.770000457763672,0.5299999713897705,-1.8200000524520876,9.539999961853027,1.4800000190734863,-1.659999966621399,44678360
1749119078379036635,33.25,2.0625,-1.1875,8.710000038146973,0.5299999713897705,-1.9299999475479128,9.539999961853027,1.4800000190734863,-1.6699999570846558,44678379
1749119078434047301,33.75,-2.625,10.8125,8.789999961853027,0.5400000214576721,-1.9700000286102293,9.550000190734863,1.4299999475479126,-1.690000057220459,44678434
1749119078435718261,27.8125,-5.3125,23.0625,8.819999694824219,0.3799999952316284,-2.0199999809265137,9.550000190734863,1.350000023841858,-1.7200000286102295,44678435
1749119078444124101,20.75,-8.375,34.375,9.06999969482422,0.2399999946355819,-2.1700000762939453,9.5600004196167,1.1799999475479126,-1.7799999713897705,44678444
1749119078464016247,12.5,-10.5625,43.5625,9.300000190734863,0.6700000166893005,-1.909999966621399,9.56999969482422,1.0399999618530271,-1.8200000524520876,44678464
1749119078481058451,-0.0625,-11.3125,50.6875,9.5,0.6399999856948853,-1.850000023841858,9.579999923706056,0.8799999952316284,-1.8600000143051147,44678481
1749119078511440923,-13.4375,-9.75,55.75,9.789999961853027,0.7200000286102295,-1.659999966621399,9.59000015258789,0.7099999785423279,-1.8899999856948853,44678511
1749119078520086483,-24.5625,-7.3125,58.4375,9.789999961853027,0.4099999964237213,-1.7599999904632568,9.600000381469728,0.5400000214576721,-1.909999966621399,44678520
1749119078541014307,-30.5625,-6.375,60.0625,9.859999656677246,0.270000010728836,-1.840000033378601,9.600000381469728,0.3600000143051147,-1.9299999475479128,44678541
1749119078570175922,-35.125,-5.8125,60.25,9.960000038146973,0.1800000071525573,-1.809999942779541,9.600000381469728,0.1899999976158142,-1.950000047683716,44678570
1749119078583132020,-35.6875,-5.6875,58.875,10.039999961853027,-0.0900000035762786,-1.809999942779541,9.600000381469728,0.0199999995529651,-1.9600000381469729,44678583
1749119078608022249,-29.5,-6.125,55.3125,10.149999618530272,-0.25,-1.6699999570846558,9.600000381469728,-0.1299999952316284,-1.9800000190734863,44678608
1749119078620241484,-22.8125,-5.25,49.0,10.260000228881836,0.0700000002980232,-1.5800000429153442,9.59000015258789,-0.2800000011920929,-2.0,44678620
1749119078645051018,-18.625,-5.1875,43.5,10.050000190734863,-0.3600000143051147,-1.9900000095367432,9.579999923706056,-0.4099999964237213,-2.0199999809265137,44678645
1749119078670183475,-9.375,-5.125,37.25,10.029999732971191,-0.4399999976158142,-2.0,9.56999969482422,-0.5299999713897705,-2.039999961853028,44678670
1749119078680196939,-0.6875,-4.8125,30.9375,9.93000030517578,-0.2000000029802322,-1.9900000095367432,9.5600004196167,-0.6299999952316284,-2.049999952316284,44678680
1749119078705054113,3.625,-4.625,26.5,9.859999656677246,0.0199999995529651,-1.870000004768372,9.550000190734863,-0.7099999785423279,-2.059999942779541,44678705
1749119078729859957,2.625,-3.875,24.6875,9.789999961853027,-0.1400000005960464,-1.8899999856948853,9.539999961853027,-0.800000011920929,-2.0799999237060547,44678729
1749119078740928588,2.625,-4.3125,23.1875,9.6899995803833,-0.550000011920929,-1.9600000381469729,9.539999961853027,-0.8700000047683716,-2.0899999141693115,44678740
1749119078765079135,5.5,-3.4375,21.375,9.670000076293944,-0.6499999761581421,-2.0199999809265137,9.529999732971191,-0.949999988079071,-2.0999999046325684,44678765
1749119078791101154,11.8125,-2.3125,18.5625,9.270000457763672,-0.8299999833106995,-2.3399999141693115,9.520000457763672,-1.0199999809265137,-2.0999999046325684,44678791
1749119078802120186,21.5,-3.5,15.9375,9.239999771118164,-0.6700000166893005,-2.490000009536743,9.510000228881836,-1.0800000429153442,-2.109999895095825,44678802
1749119078824028235,26.75,-3.6875,13.875,9.399999618530272,-0.5400000214576721,-2.359999895095825,9.5,-1.149999976158142,-2.109999895095825,44678824
1749119078846106487,28.375,-3.1875,13.625,9.520000457763672,-0.4300000071525574,-2.200000047683716,9.5,-1.1799999475479126,-2.119999885559082,44678846
1749119078866423018,25.5625,-2.125,15.25,9.470000267028809,-0.6800000071525574,-2.0799999237060547,9.489999771118164,-1.2200000286102295,-2.119999885559082,44678866
1749119078880328098,23.1875,-2.25,17.9375,9.3100004196167,-0.9800000190734864,-2.3299999237060547,9.479999542236328,-1.2899999618530271,-2.119999885559082,44678880
1749119078904135280,20.75,-3.9375,19.25,9.300000190734863,-1.0399999618530271,-2.289999961853028,9.470000267028809,-1.3600000143051147,-2.119999885559082,44678904
1749119078923252415,18.0625,-4.5,19.8125,9.420000076293944,-1.0,-2.130000114440918,9.460000038146973,-1.440000057220459,-2.119999885559082,44678923
1749119078940767048,14.5625,-4.6875,20.0,9.460000038146973,-0.9900000095367432,-2.180000066757202,9.449999809265137,-1.5099999904632568,-2.130000114440918,44678940
1749119078960822555,10.125,-4.875,19.3125,9.420000076293944,-1.0299999713897705,-2.200000047683716,9.43000030517578,-1.559999942779541,-2.140000104904175,44678960
1749119078986998537,6.9375,-5.125,17.5,9.479999542236328,-1.1299999952316284,-2.059999942779541,9.420000076293944,-1.6100000143051147,-2.1600000858306885,44678986
1749119079002179123,4.875,-5.1875,15.75,9.43000030517578,-1.2000000476837158,-2.0899999141693115,9.40999984741211,-1.649999976158142,-2.1700000762939453,44679002
1749119079024163178,4.0,-5.0625,13.0625,9.40999984741211,-1.2799999713897705,-2.0899999141693115,9.399999618530272,-1.690000057220459,-2.180000066757202,44679024
1749119079041465207,5.3125,-5.25,10.25,9.5,-1.3300000429153442,-2.009999990463257,9.399999618530272,-1.7100000381469729,-2.190000057220459,44679041
1749119079065161016,6.25,-5.1875,7.9375,9.5600004196167,-1.3700000047683716,-2.0,9.390000343322754,-1.7300000190734863,-2.200000047683716,44679065
1749119079086030521,6.5,-4.4375,6.25,9.520000457763672,-1.399999976158142,-2.150000095367432,9.390000343322754,-1.75,-2.2100000381469727,44679086
1749119079106229932,8.875,-4.25,3.6875,9.40999984741211,-1.2999999523162842,-2.2799999713897705,9.380000114440918,-1.7599999904632568,-2.2100000381469727,44679106
1749119079121482760,13.4375,-5.25,0.125,9.5,-1.4299999475479126,-2.1700000762939453,9.380000114440918,-1.7599999904632568,-2.220000028610229,44679121
1749119079147396459,19.75,-5.375,-2.9375,9.510000228881836,-1.4199999570846558,-2.140000104904175,9.380000114440918,-1.7599999904632568,-2.220000028610229,44679147
1749119079178787394,20.125,-3.875,-3.875,9.43000030517578,-1.600000023841858,-2.299999952316284,9.380000114440918,-1.7599999904632568,-2.2300000190734863,44679178
1749119079185115501,22.5,-4.25,-3.4375,9.289999961853027,-1.7899999618530271,-2.359999895095825,9.380000114440918,-1.7599999904632568,-2.2300000190734863,44679185
1749119079201128496,28.3125,-5.0,-3.4375,9.199999809265137,-1.4800000190734863,-2.3399999141693115,9.380000114440918,-1.7699999809265137,-2.220000028610229,44679201
1749119079225100001,30.75,-5.9375,-4.3125,9.140000343322754,-0.8700000047683716,-2.430000066757202,9.380000114440918,-1.7799999713897705,-2.220000028610229,44679225
1749119079243142493,26.1875,-6.5625,-3.4375,9.229999542236328,-1.5399999618530271,-2.470000028610229,9.369999885559082,-1.7899999618530271,-2.2300000190734863,44679243
1749119079269887298,28.375,-7.4375,-0.4375,9.15999984741211,-1.7300000190734863,-2.180000066757202,9.369999885559082,-1.809999942779541,-2.240000009536743,44679269
1749119079287992126,37.75,-6.8125,0.375,9.140000343322754,-0.8899999856948853,-2.3299999237060547,9.359999656677246,-1.830000042915344,-2.240000009536743,44679287
1749119079305637534,44.4375,-8.25,-3.5625,8.989999771118164,-0.1199999973177909,-2.5799999237060547,9.359999656677246,-1.8600000143051147,-2.2300000190734863,44679305
1749119079329871147,39.3125,-10.75,-7.625,9.09000015258789,-0.1099999994039535,-2.549999952316284,9.359999656677246,-1.870000004768372,-2.240000009536743,44679329
1749119079341981255,35.375,-12.5,-9.9375,9.140000343322754,0.1899999976158142,-2.259999990463257,9.350000381469728,-1.870000004768372,-2.25,44679341
1749119079360028922,29.125,-12.875,-14.625,9.220000267028809,1.4199999570846558,-1.9900000095367432,9.350000381469728,-1.850000023841858,-2.2799999713897705,44679360
1749119079389054463,18.3125,-13.0,-22.4375,9.050000190734863,2.0799999237060547,-2.25,9.350000381469728,-1.7999999523162842,-2.299999952316284,44679389
1749119079414805556,-15.5625,-19.0,-23.5625,9.010000228881836,-2.130000114440918,-4.150000095367432,9.350000381469728,-1.7200000286102295,-2.359999895095825,44679414
1749119079440926672,-8.8125,-21.125,-11.5,10.140000343322754,-2.25,-2.8499999046325684,9.350000381469728,-1.6699999570846558,-2.430000066757202,44679440
1749119079465707424,-14.6875,-11.9375,-12.9375,10.550000190734863,-2.6700000762939453,-1.659999966621399,9.34000015258789,-1.6200000047683716,-2.490000009536743,44679465
1749119079483915011,-9.125,-17.125,-21.625,10.710000038146973,-0.8399999737739563,-1.950000047683716,9.34000015258789,-1.5499999523162842,-2.539999961853028,44679483
1749119079487859131,-5.0625,-17.0,-29.75,10.8100004196167,-1.809999942779541,-1.350000023841858,9.34000015258789,-1.4500000476837158,-2.5999999046325684,44679487
1749119079508034639,7.375,-18.875,-33.4375,10.09000015258789,-1.4299999475479126,-2.049999952316284,9.34000015258789,-1.3600000143051147,-2.6600000858306885,44679508
1749119079521102238,8.625,-18.875,-36.125,9.470000267028809,-1.0700000524520874,-2.930000066757202,9.329999923706056,-1.25,-2.7100000381469727,44679521
1749119079546148917,7.8125,-18.25,-35.3125,9.06999969482422,-0.7200000286102295,-3.369999885559082,9.329999923706056,-1.149999976158142,-2.7699999809265137,44679546
1749119079560787509,0.5625,-17.0625,-31.5625,8.949999809265137,-0.1500000059604644,-3.259999990463257,9.329999923706056,-1.0499999523162842,-2.819999933242798,44679560
1749119079585715574,-6.625,-16.0,-26.9375,9.109999656677246,-0.3000000119209289,-3.039999961853028,9.31999969482422,-0.949999988079071,-2.869999885559082,44679585
1749119079600203588,-8.9375,-16.125,-24.1875,9.31999969482422,-0.8399999737739563,-2.650000095367432,9.3100004196167,-0.8700000047683716,-2.930000066757202,44679600
1749119079631057613,-5.5625,-17.4375,-24.25,9.529999732971191,-0.6299999952316284,-2.5299999713897705,9.300000190734863,-0.7799999713897705,-2.9800000190734863,44679631
1749119079642280301,-1.125,-18.9375,-24.75,9.479999542236328,-0.7799999713897705,-2.7799999713897705,9.289999961853027,-0.699999988079071,-3.039999961853028,44679642
1749119079670910951,0.875,-19.1875,-25.75,9.40999984741211,-0.550000011920929,-3.150000095367432,9.279999732971191,-0.6200000047683716,-3.0999999046325684,44679670
1749119079731768342,-0.625,-18.1875,-25.625,9.289999961853027,-0.5699999928474426,-3.299999952316284,9.260000228881836,-0.5400000214576721,-3.1600000858306885,44679731
1749119079754760548,-3.8125,-16.9375,-24.375,9.329999923706056,-0.209999993443489,-3.369999885559082,9.25,-0.4600000083446502,-3.2100000381469727,44679754
1749119079768938634,-6.0625,-15.8125,-23.4375,9.329999923706056,-0.1800000071525573,-3.1600000858306885,9.229999542236328,-0.3799999952316284,-3.259999990463257,44679768
1749119079794116744,-5.875,-16.25,-22.3125,9.329999923706056,-0.1099999994039535,-3.25,9.220000267028809,-0.3000000119209289,-3.319999933242798,44679794
1749119079801783630,-6.6875,-16.125,-21.125,9.229999542236328,0.1199999973177909,-3.430000066757202,9.199999809265137,-0.2300000041723251,-3.359999895095825,44679801
1749119079808799467,-9.75,-14.9375,-20.0625,9.020000457763672,-0.2800000011920929,-3.470000028610229,9.1899995803833,-0.1500000059604644,-3.4100000858306885,44679808
1749119079810969751,-10.8125,-14.25,-20.25,9.15999984741211,-0.25,-3.569999933242798,9.170000076293944,-0.0799999982118606,-3.4600000381469727,44679810
1749119079825111686,-9.875,-13.6875,-21.125,9.300000190734863,-0.1800000071525573,-3.7100000381469727,9.149999618530272,-0.0099999997764825,-3.5,44679825
1749119079840416366,-10.1875,-12.875,-21.875,9.300000190734863,-0.0700000002980232,-3.799999952316284,9.140000343322754,0.0599999986588954,-3.549999952316284,44679840
1749119079862989857,-11.1875,-10.75,-22.875,9.40999984741211,0.050000000745058,-3.7799999713897705,9.119999885559082,0.1400000005960464,-3.5799999237060547,44679862
1749119079887929178,-11.8125,-10.0625,-23.25,9.520000457763672,0.2199999988079071,-3.630000114440918,9.109999656677246,0.2300000041723251,-3.609999895095825,44679887
1749119079908879567,-12.75,-7.875,-25.1875,9.140000343322754,0.4600000083446502,-3.940000057220459,9.09000015258789,0.3199999928474426,-3.640000104904175,44679908
1749119079923077863,-12.5625,-7.3125,-27.0,9.039999961853027,0.4000000059604645,-4.079999923706055,9.079999923706056,0.4199999868869781,-3.660000085830689,44679923
1749119079946937592,-12.625,-6.6875,-28.6875,9.140000343322754,0.8299999833106995,-3.650000095367432,9.06999969482422,0.5199999809265137,-3.680000066757202,44679946
1749119079963133664,-13.8125,-5.1875,-28.1875,9.279999732971191,0.8299999833106995,-3.430000066757202,9.050000190734863,0.6200000047683716,-3.700000047683716,44679963
1749119079980418039,-12.6875,-5.3125,-27.5,9.0,0.9100000262260436,-3.759999990463257,9.039999961853027,0.7200000286102295,-3.7100000381469727,44679980
1749119080005066171,-11.625,-5.8125,-25.3125,8.819999694824219,1.1699999570846558,-3.9600000381469727,9.029999732971191,0.8199999928474426,-3.7200000286102295,44680005
1749119080022004270,-12.375,-5.5625,-22.3125,8.890000343322754,1.2599999904632568,-3.859999895095825,9.010000228881836,0.8999999761581421,-3.740000009536743,44680022
1749119080047030843,-12.375,-5.375,-20.125,8.930000305175781,1.190000057220459,-3.680000066757202,9.0,0.9800000190734864,-3.75,44680047
1749119080060119967,-12.625,-5.1875,-18.375,9.039999961853027,1.309999942779541,-3.7100000381469727,8.989999771118164,1.059999942779541,-3.759999990463257,44680060
1749119080084468289,-13.125,-4.625,-17.1875,8.9399995803833,1.3700000047683716,-3.920000076293945,8.970000267028809,1.1299999952316284,-3.7699999809265137,44680084
1749119080100081336,-13.375,-4.3125,-16.625,8.859999656677246,1.149999976158142,-3.930000066757202,8.960000038146973,1.2000000476837158,-3.7799999713897705,44680100
1749119080125060892,-12.9375,-3.6875,-16.125,9.0600004196167,1.5,-3.950000047683716,8.949999809265137,1.2599999904632568,-3.7899999618530273,44680125
1749119080148858363,-14.125,-2.625,-15.1875,9.1899995803833,1.4199999570846558,-3.7100000381469727,8.9399995803833,1.3300000429153442,-3.7899999618530273,44680148
1749119080172859334,-15.125,-2.125,-14.9375,9.170000076293944,1.399999976158142,-3.740000009536743,8.930000305175781,1.3899999856948853,-3.7899999618530273,44680172
1749119080182016809,-14.875,-2.125,-15.4375,9.039999961853027,1.2999999523162842,-3.829999923706055,8.920000076293945,1.4600000381469729,-3.7899999618530273,44680182
1749119080207068078,-15.9375,-2.125,-16.125,9.15999984741211,1.1699999570846558,-3.640000104904175,8.90999984741211,1.5199999809265137,-3.7799999713897705,44680207
1749119080221120351,-16.75,-2.0,-17.4375,9.029999732971191,1.2799999713897705,-3.7100000381469727,8.899999618530273,1.590000033378601,-3.7799999713897705,44680221
1749119080240106593,-16.875,-2.375,-19.3125,9.149999618530272,1.5299999713897705,-3.660000085830689,8.890000343322754,1.659999966621399,-3.7699999809265137,44680240
1749119080263192266,-18.0,-1.9375,-21.625,9.020000457763672,1.5199999809265137,-3.849999904632568,8.880000114440918,1.7400000095367432,-3.7699999809265137,44680263
1749119080288716414,-17.75,-2.4375,-23.8125,9.06999969482422,1.7799999713897705,-3.9600000381469727,8.859999656677246,1.830000042915344,-3.7699999809265137,44680288
1749119080300171667,-18.8125,-2.3125,-25.8125,9.18000030517578,2.0999999046325684,-3.880000114440918,8.84000015258789,1.9299999475479128,-3.759999990463257,44680300
1749119080328173990,-20.5625,-2.375,-27.1875,9.300000190734863,2.059999942779541,-3.670000076293945,8.819999694824219,2.0299999713897705,-3.75,44680328
1749119080349957910,-21.5625,-1.875,-30.0,9.390000343322754,2.0799999237060547,-3.7200000286102295,8.800000190734863,2.150000095367432,-3.75,44680349
1749119080360736797,-23.5,-1.75,-33.0,9.31999969482422,1.8899999856948853,-3.799999952316284,8.770000457763672,2.2699999809265137,-3.7300000190734863,44680360
1749119080383159157,-27.75,-1.1875,-37.25,9.390000343322754,1.7899999618530271,-3.950000047683716,8.75,2.390000104904175,-3.7100000381469727,44680383
1749119080409052609,-29.8125,-0.375,-42.4375,9.4399995803833,1.9600000381469729,-3.880000114440918,8.720000267028809,2.5299999713897705,-3.690000057220459,44680409
1749119080420026400,-31.75,1.0,-49.125,9.529999732971191,1.7200000286102295,-3.910000085830689,8.6899995803833,2.680000066757202,-3.660000085830689,44680420
1749119080444906616,-32.6875,1.1875,-57.1875,9.729999542236328,1.5299999713897705,-3.680000066757202,8.640000343322754,2.859999895095825,-3.630000114440918,44680444
1749119080470051236,-33.4375,0.6875,-66.625,10.199999809265137,1.659999966621399,-3.430000066757202,8.579999923706055,3.0799999237060547,-3.5899999141693115,44680470
1749119080486611751,-32.25,0.25,-78.5625,10.420000076293944,1.559999942779541,-3.2799999713897705,8.5,3.3399999141693115,-3.559999942779541,44680486
1749119080514099495,-30.5,-1.125,-91.0,10.800000190734863,1.6799999475479126,-3.309999942779541,8.390000343322754,3.630000114440918,-3.5199999809265137,44680514
1749119080519852371,-33.75,-2.25,-103.0,11.43000030517578,0.7699999809265137,-3.119999885559082,8.260000228881836,3.950000047683716,-3.490000009536743,44680519
1749119080544113711,-37.3125,-7.8125,-114.25,12.039999961853027,0.6200000047683716,-3.440000057220459,8.100000381469727,4.300000190734863,-3.450000047683716,44680544
1749119080570828109,-48.0625,-12.5625,-124.25,14.300000190734863,0.9300000071525574,-3.240000009536743,7.900000095367432,4.679999828338623,-3.4200000762939453,44680570
1749119080580027147,-88.0625,-12.875,-129.0,16.270000457763672,0.5099999904632568,-3.400000095367432,7.670000076293945,5.110000133514404,-3.319999933242798,44680580
1749119080603109208,-120.125,-10.5,-137.8125,15.989999771118164,-0.050000000745058,-3.630000114440918,7.420000076293945,5.579999923706055,-3.140000104904175,44680603
1749119080629818731,-98.375,-11.25,-158.25,13.020000457763672,0.9399999976158142,-3.0899999141693115,7.099999904632568,6.059999942779541,-2.9600000381469727,44680629
1749119080643175987,-52.1875,-2.0625,-160.75,11.220000267028809,4.159999847412109,-4.349999904632568,6.760000228881836,6.5,-2.8399999141693115,44680643
1749119080666092661,-32.0625,14.9375,-160.6875,9.350000381469728,5.360000133514404,-4.929999828338623,6.400000095367432,6.889999866485596,-2.740000009536743,44680666
1749119080691752613,-30.4375,27.6875,-143.4375,7.429999828338623,2.789999961853028,-5.380000114440918,6.070000171661377,7.239999771118164,-2.609999895095825,44680691
1749119080701025146,-10.75,33.5,-103.4375,1.8200000524520876,2.9600000381469727,-5.510000228881836,5.809999942779541,7.480000019073486,-2.5,44680701
1749119080726050938,-7.25,29.0625,-48.75,2.619999885559082,0.2199999988079071,-5.860000133514404,5.679999828338623,7.599999904632568,-2.430000066757202,44680726
1749119080743163096,-28.875,13.625,-1.375,1.5,-0.5600000023841858,-3.059999942779541,5.650000095367432,7.670000076293945,-2.319999933242798,44680743
1749119080766139958,-26.25,7.75,46.9375,3.200000047683716,-0.6800000071525574,-1.8799999952316284,5.75,7.619999885559082,-2.2300000190734863,44680766
1749119080781046336,-6.1875,29.375,83.6875,2.9200000762939453,-0.0900000035762786,-2.0799999237060547,5.949999809265137,7.480000019073486,-2.1600000858306885,44680781
1749119080805962771,10.0,30.6875,121.1875,4.269999980926514,0.800000011920929,-1.830000042915344,6.260000228881836,7.239999771118164,-2.109999895095825,44680805
1749119080823029083,27.25,27.4375,155.5,5.829999923706055,1.7999999523162842,-1.559999942779541,6.630000114440918,6.900000095367432,-2.0999999046325684,44680823
1749119080841232515,41.25,32.1875,184.75,5.869999885559082,1.840000033378601,-1.8799999952316284,7.050000190734863,6.460000038146973,-2.119999885559082,44680841
1749119080863649475,58.0,27.625,206.125,6.619999885559082,1.5199999809265137,-3.299999952316284,7.5,5.929999828338623,-2.1600000858306885,44680863
1749119080886897304,81.0,21.9375,223.5,7.369999885559082,1.7000000476837158,-3.859999895095825,7.929999828338623,5.300000190734863,-2.240000009536743,44680886
1749119080900893770,92.3125,18.5,235.875,8.289999961853027,2.539999961853028,-4.079999923706055,8.329999923706055,4.590000152587891,-2.3399999141693115,44680900
1749119080923066987,91.125,15.75,244.875,9.09000015258789,3.4100000858306885,-4.079999923706055,8.6899995803833,3.819999933242798,-2.4200000762939453,44680923
1749119080948001872,73.0,15.0,259.8125,10.90999984741211,4.429999828338623,-4.78000020980835,9.0,2.990000009536743,-2.470000028610229,44680948
1749119080995014374,49.4375,11.9375,275.9375,12.229999542236328,4.070000171661377,-4.869999885559082,9.25,2.0999999046325684,-2.4800000190734863,44680995
1749119081015109638,29.9375,4.9375,287.4375,13.380000114440918,3.7200000286102295,-4.78000020980835,9.40999984741211,1.1699999570846558,-2.470000028610229,44681015
1749119081019989290,22.6875,-7.0625,288.3125,14.289999961853027,4.159999847412109,-4.360000133514404,9.479999542236328,0.2300000041723251,-2.490000009536743,44681019
1749119081032031159,25.0625,-19.0625,284.625,15.15999984741211,3.240000009536743,-3.849999904632568,9.4399995803833,-0.6899999976158142,-2.539999961853028,44681032
1749119081043134459,32.4375,-25.875,272.375,15.06999969482422,2.740000009536743,-3.490000009536743,9.3100004196167,-1.590000033378601,-2.609999895095825,44681043
1749119081062293702,43.25,-28.625,252.4375,14.399999618530272,3.0299999713897705,-3.400000095367432,9.109999656677246,-2.430000066757202,-2.6700000762939453,44681062
1749119081088056694,44.375,-31.25,223.4375,13.779999732971191,3.119999885559082,-1.7799999713897705,8.859999656677246,-3.180000066757202,-2.720000028610229,44681088
1749119081099997853,47.3125,-20.25,181.0625,12.210000038146973,2.150000095367432,-2.319999933242798,8.609999656677246,-3.7899999618530273,-2.7300000190734863,44681099
1749119081120046024,62.375,-19.375,132.75,10.3100004196167,4.909999847412109,-2.119999885559082,8.399999618530273,-4.260000228881836,-2.700000047683716,44681120
1749119081141135973,32.1875,-21.125,78.25,8.760000228881836,4.25,-1.870000004768372,8.239999771118164,-4.559999942779541,-2.700000047683716,44681141
1749119081167879471,18.4375,-18.875,18.3125,8.449999809265137,3.700000047683716,-2.109999895095825,8.170000076293945,-4.670000076293945,-2.7300000190734863,44681167
1749119081184920340,24.5625,-16.4375,-35.25,9.0,3.440000057220459,-2.4800000190734863,8.1899995803833,-4.630000114440918,-2.740000009536743,44681184
1749119081204906804,30.375,-16.875,-73.1875,9.4399995803833,3.190000057220459,-2.5899999141693115,8.279999732971191,-4.46999979019165,-2.740000009536743,44681204
1749119081221150655,36.125,-19.5625,-93.125,9.170000076293944,2.8499999046325684,-2.4800000190734863,8.390000343322754,-4.260000228881836,-2.740000009536743,44681221
1749119081241072313,32.0,-21.75,-103.6875,9.380000114440918,-8.539999961853027,-4.110000133514404,8.510000228881836,-4.0,-2.75,44681241
1749119081260050728,30.5,-30.3125,-52.5625,8.720000267028809,-6.800000190734863,-3.069999933242798,8.579999923706055,-3.829999923706055,-2.789999961853028,44681260
1749119081299816561,39.75,-31.4375,-52.75,10.350000381469728,-1.149999976158142,-1.909999966621399,8.609999656677246,-3.7300000190734863,-2.8299999237060547,44681299
1749119081304058530,12.4375,-20.75,-53.0,10.960000038146973,-4.320000171661377,-1.0,8.65999984741211,-3.5799999237060547,-2.880000114440918,44681304
1749119081321021717,-10.875,-24.4375,-49.25,12.829999923706056,-3.470000028610229,-0.1500000059604644,8.6899995803833,-3.440000057220459,-2.9600000381469727,44681321
1749119081348005714,-6.3125,-25.5,-65.25,11.68000030517578,-2.6700000762939453,-2.7100000381469727,8.729999542236328,-3.25,-3.039999961853028,44681348
1749119081360896801,22.1875,-34.75,-80.6875,10.109999656677246,-3.180000066757202,-4.699999809265137,8.779999732971191,-3.0299999713897705,-3.119999885559082,44681360
1749119081383961168,51.6875,-37.5625,-86.9375,9.34000015258789,-1.0499999523162842,-4.110000133514404,8.829999923706055,-2.8299999237060547,-3.180000066757202,44681383
1749119081411133482,30.875,-31.875,-80.1875,8.890000343322754,-0.0099999997764825,-4.289999961853027,8.869999885559082,-2.619999885559082,-3.25,44681411
1749119081435790593,-10.0,-23.75,-66.125,8.220000267028809,-1.5099999904632568,-5.039999961853027,8.899999618530273,-2.4100000858306885,-3.3299999237060547,44681435
1749119081443903681,-16.375,-19.125,-56.5625,8.630000114440918,-1.4199999570846558,-3.839999914169312,8.920000076293945,-2.2100000381469727,-3.400000095367432,44681443
1749119081461065147,-13.3125,-17.8125,-47.6875,9.510000228881836,-1.340000033378601,-3.140000104904175,8.930000305175781,-2.049999952316284,-3.4600000381469727,44681461
1749119081480934965,-20.0,-16.3125,-40.3125,9.800000190734863,-1.6799999475479126,-3.0799999237060547,8.9399995803833,-1.899999976158142,-3.5299999713897705,44681480
1749119081501103907,-26.75,-15.5,-38.1875,9.449999809265137,-2.3299999237060547,-3.430000066757202,8.949999809265137,-1.75,-3.5899999141693115,44681501
1749119081528082392,-29.0,-14.375,-41.5,8.670000076293945,-1.9299999475479128,-4.619999885559082,8.949999809265137,-1.600000023841858,-3.650000095367432,44681528
1749119081540370469,-36.3125,-10.0625,-44.0625,8.619999885559082,-1.850000023841858,-4.510000228881836,8.960000038146973,-1.4199999570846558,-3.700000047683716,44681540
1749119081565934654,-42.625,-4.4375,-45.125,9.1899995803833,-0.5199999809265137,-4.21999979019165,8.970000267028809,-1.2300000190734863,-3.740000009536743,44681565
1749119081585185551,-51.75,-0.6875,-46.0,9.359999656677246,-1.309999942779541,-3.3399999141693115,8.989999771118164,-1.0299999713897705,-3.759999990463257,44681585
1749119081599932719,-41.125,-3.125,-49.6875,9.239999771118164,-1.2799999713897705,-3.390000104904175,9.0,-0.8299999833106995,-3.7899999618530273,44681599
1749119081627148038,-32.25,-4.1875,-53.9375,9.140000343322754,-0.4900000095367431,-3.470000028610229,9.010000228881836,-0.6200000047683716,-3.809999942779541,44681627
1749119081654472738,-27.75,-3.5625,-54.375,9.029999732971191,-0.3300000131130218,-3.849999904632568,9.010000228881836,-0.4199999868869781,-3.819999933242798,44681654
1749119081678924020,-27.0,-2.5625,-53.0625,9.140000343322754,0.3799999952316284,-3.930000066757202,9.020000457763672,-0.2199999988079071,-3.829999923706055,44681678
1749119081702908204,-28.6875,-1.0625,-49.625,9.279999732971191,0.4600000083446502,-3.869999885559082,9.020000457763672,-0.0299999993294477,-3.839999914169312,44681702
1749119081708336465,-27.75,-1.1875,-45.25,9.220000267028809,0.8399999737739563,-3.910000085830689,9.010000228881836,0.1400000005960464,-3.839999914169312,44681708
1749119081745976093,-29.9375,-0.375,-41.0625,9.09000015258789,1.1100000143051147,-3.819999933242798,9.010000228881836,0.3000000119209289,-3.839999914169312,44681745
1749119081760810615,-32.375,0.125,-37.6875,9.109999656677246,0.6499999761581421,-3.7899999618530273,9.010000228881836,0.4600000083446502,-3.839999914169312,44681760
1749119081774003046,-29.4375,-1.3125,-36.6875,8.989999771118164,0.6700000166893005,-3.819999933242798,9.0,0.6100000143051147,-3.829999923706055,44681774
1749119081780313573,-27.1875,-2.125,-36.3125,9.0,1.0499999523162842,-3.869999885559082,8.989999771118164,0.7599999904632568,-3.829999923706055,44681780
1749119081805137384,-27.5,-2.1875,-35.5,9.130000114440918,0.9900000095367432,-4.079999923706055,8.970000267028809,0.8999999761581421,-3.829999923706055,44681805
1749119081825043013,-28.8125,-1.25,-35.6875,9.100000381469728,0.8999999761581421,-3.990000009536743,8.960000038146973,1.0499999523162842,-3.829999923706055,44681825
1749119081850017589,-28.625,-0.75,-37.25,9.119999885559082,1.5299999713897705,-3.9600000381469727,8.9399995803833,1.2000000476837158,-3.819999933242798,44681850
1749119081864338063,-28.0625,-1.1875,-38.9375,9.609999656677246,1.4600000381469729,-3.7300000190734863,8.930000305175781,1.350000023841858,-3.809999942779541,44681864
1749119081881213976,-29.375,-0.125,-42.25,9.56999969482422,1.1699999570846558,-3.680000066757202,8.90999984741211,1.5099999904632568,-3.799999952316284,44681881
1749119081904856446,-28.875,0.25,-47.125,9.630000114440918,1.0,-3.900000095367432,8.880000114440918,1.690000057220459,-3.7799999713897705,44681904
1749119081929915016,-28.5625,1.3125,-52.625,9.630000114440918,1.5,-3.990000009536743,8.850000381469727,1.8799999952316284,-3.759999990463257,44681929
1749119081956929315,-32.3125,2.0625,-58.125,9.739999771118164,1.3600000143051147,-4.010000228881836,8.819999694824219,2.059999942779541,-3.7300000190734863,44681956
1749119081980892656,-35.8125,2.3125,-63.875,10.119999885559082,1.7100000381469729,-3.869999885559082,8.779999732971191,2.289999961853028,-3.700000047683716,44681980
1749119082004651832,-39.5,4.4375,-70.0,9.949999809265137,1.5399999618530271,-3.869999885559082,8.729999542236328,2.539999961853028,-3.660000085830689,44682004
1749119082009045576,-40.8125,5.1875,-78.25,9.880000114440918,1.559999942779541,-3.700000047683716,8.670000076293945,2.819999933242798,-3.609999895095825,44682009
1749119082020093163,-40.625,4.8125,-87.6875,9.880000114440918,1.5099999904632568,-3.539999961853028,8.59000015258789,3.0999999046325684,-3.549999952316284,44682020
1749119082040811375,-40.25,3.6875,-97.5,10.34000015258789,1.350000023841858,-3.910000085830689,8.5,3.400000095367432,-3.490000009536743,44682040
1749119082062116227,-41.3125,2.75,-109.5,11.149999618530272,1.25,-3.190000057220459,8.380000114440918,3.75,-3.430000066757202,44682062
1749119082085852266,-44.875,1.1875,-121.875,11.949999809265137,0.3300000131130218,-3.2799999713897705,8.220000267028809,4.130000114440918,-3.369999885559082,44682085
1749119082104860509,-47.375,-3.125,-133.6875,13.369999885559082,-0.3799999952316284,-2.450000047683716,8.029999732971191,4.550000190734863,-3.309999942779541,44682104
1749119082122931949,-62.0625,-3.5,-140.9375,14.8100004196167,0.8600000143051147,-2.7799999713897705,7.800000190734863,4.980000019073486,-3.220000028610229,44682122
1749119082141267725,-118.375,-4.5625,-143.0,17.709999084472656,-1.3600000143051147,-3.559999942779541,7.539999961853027,5.460000038146973,-3.049999952316284,44682141
1749119082167983967,-144.9375,-3.875,-163.1875,17.889999389648438,-2.8299999237060547,-4.019999980926514,7.230000019073486,5.989999771118164,-2.7799999713897705,44682167
1749119082179760897,-96.25,-11.1875,-183.5,15.210000038146973,-1.7300000190734863,-4.690000057220459,6.840000152587891,6.519999980926514,-2.569999933242798,44682179
1749119082205148222,-30.8125,1.4375,-190.125,11.989999771118164,4.860000133514404,-4.949999809265137,6.409999847412109,6.989999771118164,-2.4800000190734863,44682205
1749119082222981803,-14.625,19.625,-183.875,10.93000030517578,2.799999952316284,-7.630000114440918,5.96999979019165,7.389999866485596,-2.4100000858306885,44682222
1749119082266152416,-1.25,27.4375,-142.625,6.210000038146973,1.8600000143051147,-4.789999961853027,5.599999904632568,7.690000057220459,-2.3499999046325684,44682266
1749119082291026100,14.625,48.75,-80.875,0.5400000214576721,8.869999885559082,-5.329999923706055,5.369999885559082,7.869999885559082,-2.289999961853028,44682291
1749119082316195612,-50.25,35.1875,-36.125,2.450000047683716,-0.9100000262260436,-4.619999885559082,5.260000228881836,7.989999771118164,-2.0999999046325684,44682316
1749119082341021179,-13.8125,21.75,13.0,3.150000095367432,-0.9200000166893004,-2.950000047683716,5.289999961853027,8.0,-2.0,44682341
1749119082360958599,-1.8125,35.375,56.0625,2.470000028610229,-1.1699999570846558,-1.9299999475479128,5.429999828338623,7.920000076293945,-1.9299999475479128,44682360
1749119082374877201,23.3125,49.4375,101.9375,2.740000009536743,0.1800000071525573,-1.7000000476837158,5.699999809265137,7.739999771118164,-1.8799999952316284,44682374
1749119082392209925,31.5625,51.875,146.0625,3.819999933242798,1.6100000143051147,-1.7699999809265137,6.079999923706055,7.449999809265137,-1.8600000143051147,44682392
1749119082401160245,36.0,47.6875,190.0625,4.329999923706055,0.800000011920929,-1.7899999618530271,6.550000190734863,7.050000190734863,-1.840000033378601,44682401
1749119082414064067,60.5625,40.0,225.75,4.809999942779541,0.6899999976158142,-2.2100000381469727,7.079999923706055,6.519999980926514,-1.870000004768372,44682414
1749119082428111287,83.6875,30.0625,252.5625,5.820000171661377,1.590000033378601,-2.900000095367432,7.610000133514404,5.849999904632568,-1.950000047683716,44682428
1749119082451927614,88.9375,21.6875,276.8125,7.46999979019165,1.5399999618530271,-3.7200000286102295,8.130000114440918,5.070000171661377,-2.049999952316284,44682451
1749119082462788514,97.4375,15.875,295.4375,8.25,1.75,-3.630000114440918,8.600000381469727,4.179999828338623,-2.150000095367432,44682462
1749119082481061216,98.1875,13.8125,311.0625,10.56999969482422,2.990000009536743,-3.4200000762939453,8.989999771118164,3.190000057220459,-2.2300000190734863,44682481
1749119082505962587,94.0,12.375,330.5625,12.1899995803833,3.119999885559082,-4.349999904632568,9.289999961853027,2.109999895095825,-2.2799999713897705,44682505
1749119082521879165,82.1875,8.3125,344.5625,15.130000114440918,4.400000095367432,-5.440000057220459,9.479999542236328,0.959999978542328,-2.289999961853028,44682521
1749119082546205302,84.375,-5.625,353.4375,17.68000030517578,4.059999942779541,-6.079999923706055,9.520000457763672,-0.2199999988079071,-2.309999942779541,44682546
1749119082563051178,92.8125,-22.75,347.6875,18.450000762939453,5.380000114440918,-5.630000114440918,9.40999984741211,-1.4199999570846558,-2.3399999141693115,44682563
1749119082589935001,75.75,-31.8125,333.5625,18.280000686645508,6.409999847412109,-4.119999885559082,9.15999984741211,-2.539999961853028,-2.380000114440918,44682589
1749119082601533236,19.125,-17.25,304.6875,16.729999542236328,7.179999828338623,-2.5799999237060547,8.819999694824219,-3.5199999809265137,-2.4200000762939453,44682601
1749119082627007213,25.1875,-26.0,249.9375,14.0600004196167,6.690000057220459,-4.239999771118164,8.449999809265137,-4.309999942779541,-2.450000047683716,44682627
1749119082649861717,-1.3125,-26.0625,175.0625,9.619999885559082,10.56999969482422,-1.0099999904632568,8.119999885559082,-4.869999885559082,-2.5199999809265137,44682649
1749119082661081507,-43.0,-13.75,66.5,7.230000019073486,8.829999923706055,-1.4199999570846558,7.949999809265137,-5.099999904632568,-2.619999885559082,44682661
1749119082680818162,-23.75,-13.125,-40.5,8.630000114440918,4.190000057220459,-2.569999933242798,7.960000038146973,-5.019999980926514,-2.7100000381469727,44682680
1749119082703834624,32.75,-19.1875,-115.1875,10.329999923706056,4.679999828338623,-1.659999966621399,8.109999656677246,-4.769999980926514,-2.7300000190734863,44682703
1749119082728801474,68.375,-23.125,-151.0625,10.920000076293944,3.470000028610229,-1.409999966621399,8.3100004196167,-4.429999828338623,-2.700000047683716,44682728
1749119082740885381,30.5,-21.1875,-106.1875,10.359999656677246,-14.380000114440918,-4.090000152587891,8.479999542236328,-4.099999904632568,-2.700000047683716,44682740
1749119082764911267,82.3125,-42.0625,-60.75,8.800000190734863,2.970000028610229,-4.309999942779541,8.529999732971191,-3.990000009536743,-2.700000047683716,44682764
1749119082781467883,7.75,-27.0,-73.8125,11.859999656677246,-4.960000038146973,-1.4500000476837158,8.600000381469727,-3.809999942779541,-2.759999990463257,44682781
1749119082806003425,-17.4375,-31.625,-52.375,14.520000457763672,-2.0799999237060547,0.5,8.640000343322754,-3.630000114440918,-2.859999895095825,44682806
