timestamp_ns,wx,wy,wz,ax,ay,az,gx,gy,gz,time_ms_loc
1749118381684181755,37.75,-7.1875,-24.0,9.550000190734863,-1.0700000524520874,-1.940000057220459,9.539999961853027,-1.25,-1.850000023841858,43981684
1749118381707949598,36.3125,-7.125,-23.0625,9.489999771118164,-1.1699999570846558,-2.059999942779541,9.550000190734863,-1.2300000190734863,-1.850000023841858,43981707
1749118381720849690,30.625,-6.5625,-19.9375,9.6899995803833,-0.7300000190734863,-1.8200000524520876,9.550000190734863,-1.159999966621399,-1.8600000143051147,43981720
1749118381741661108,26.8125,-5.75,-18.0,9.65999984741211,-0.8899999856948853,-1.600000023841858,9.5600004196167,-1.1100000143051147,-1.870000004768372,43981741
1749118381767965421,26.0625,-5.75,-16.875,9.649999618530272,-0.8299999833106995,-1.590000033378601,9.5600004196167,-1.090000033378601,-1.870000004768372,43981767
1749118381782257661,23.625,-5.1875,-14.4375,9.710000038146973,-1.0199999809265137,-1.6799999475479126,9.5600004196167,-1.0399999618530271,-1.8899999856948853,43981782
1749118381811083462,24.0625,-5.4375,-13.625,9.579999923706056,-1.0399999618530271,-1.7999999523162842,9.5600004196167,-1.0199999809265137,-1.8899999856948853,43981811
1749118381821982194,24.625,-5.625,-12.375,9.449999809265137,-0.8600000143051147,-2.0,9.5600004196167,-0.9900000095367432,-1.899999976158142,43981821
1749118381847012150,23.75,-6.6875,-10.875,9.5,-0.8899999856948853,-1.8200000524520876,9.5600004196167,-0.9700000286102296,-1.919999957084656,43981847
1749118381858918882,23.4375,-7.3125,-10.4375,9.479999542236328,-0.7799999713897705,-1.7300000190734863,9.5600004196167,-0.959999978542328,-1.919999957084656,43981858
1749118381882990063,23.125,-8.6875,-9.0,9.5600004196167,-1.3300000429153442,-1.7999999523162842,9.5600004196167,-0.9300000071525574,-1.950000047683716,43981882
1749118381906776975,24.1875,-8.9375,-9.0625,9.510000228881836,-1.440000057220459,-1.870000004768372,9.5600004196167,-0.9300000071525574,-1.9700000286102293,43981906
1749118381927031560,24.375,-7.875,-10.5625,9.649999618530272,-1.0299999713897705,-1.850000023841858,9.550000190734863,-0.8999999761581421,-1.9900000095367432,43981927
1749118381941067589,22.25,-7.5,-10.0625,9.5600004196167,-0.8500000238418579,-1.8600000143051147,9.550000190734863,-0.8899999856948853,-2.009999990463257,43981941
1749118381965011570,20.625,-6.625,-9.6875,9.6899995803833,-0.4199999868869781,-1.6699999570846558,9.550000190734863,-0.8799999952316284,-2.0199999809265137,43981965
1749118381982039681,9.875,-4.25,-7.25,9.75,-0.8299999833106995,-1.7799999713897705,9.550000190734863,-0.8500000238418579,-2.0299999713897705,43981982
1749118382003916761,8.4375,-4.0,-6.5,9.630000114440918,-0.8999999761581421,-1.830000042915344,9.550000190734863,-0.8399999737739563,-2.039999961853028,43982003
1749118382025203144,10.625,-4.3125,-5.75,9.4399995803833,-0.8700000047683716,-2.119999885559082,9.550000190734863,-0.8199999928474426,-2.059999942779541,43982025
1749118382043134255,10.4375,-5.25,-4.5625,9.34000015258789,-1.0,-2.309999942779541,9.539999961853027,-0.8199999928474426,-2.069999933242798,43982043
1749118382085466266,10.875,-5.875,-4.0,9.300000190734863,-1.0800000429153442,-2.3499999046325684,9.539999961853027,-0.8100000023841858,-2.0799999237060547,43982085
1749118382112321290,11.5625,-4.3125,-3.0,9.640000343322754,-0.5799999833106995,-1.830000042915344,9.539999961853027,-0.8100000023841858,-2.0999999046325684,43982112
1749118382137260300,9.625,-4.3125,-2.125,9.699999809265137,-0.6899999976158142,-1.7999999523162842,9.539999961853027,-0.8100000023841858,-2.0999999046325684,43982137
1749118382162379392,10.625,-4.6875,-1.625,9.630000114440918,-0.9900000095367432,-1.840000033378601,9.529999732971191,-0.8100000023841858,-2.119999885559082,43982162
1749118382188153273,13.1875,-4.625,-2.625,9.59000015258789,-0.7300000190734863,-1.7899999618530271,9.529999732971191,-0.8100000023841858,-2.130000114440918,43982188
1749118382199121306,11.9375,-4.375,-2.8125,9.729999542236328,-0.7699999809265137,-1.690000057220459,9.529999732971191,-0.8100000023841858,-2.130000114440918,43982199
1749118382208053796,8.5625,-3.8125,-3.5,9.800000190734863,-0.7699999809265137,-1.7000000476837158,9.529999732971191,-0.8100000023841858,-2.130000114440918,43982208
1749118382222316193,7.625,-3.8125,-3.6875,9.760000228881836,-0.7799999713897705,-1.7699999809265137,9.529999732971191,-0.800000011920929,-2.119999885559082,43982222
1749118382235084615,5.5,-3.4375,-4.375,9.619999885559082,-0.9399999976158142,-1.8799999952316284,9.529999732971191,-0.7900000214576721,-2.130000114440918,43982235
1749118382248795427,7.3125,-3.8125,-6.0,9.550000190734863,-0.9300000071525574,-2.0,9.529999732971191,-0.7799999713897705,-2.140000104904175,43982248
1749118382256938856,7.75,-3.875,-6.75,9.539999961853027,-0.800000011920929,-1.9700000286102293,9.529999732971191,-0.7699999809265137,-2.140000104904175,43982256
1749118382284077111,6.625,-3.8125,-7.625,9.550000190734863,-0.8799999952316284,-2.0299999713897705,9.529999732971191,-0.7400000095367432,-2.150000095367432,43982284
1749118382307971831,7.125,-4.0625,-7.875,9.579999923706056,-0.9100000262260436,-2.059999942779541,9.529999732971191,-0.7400000095367432,-2.1600000858306885,43982307
1749118382319285195,8.8125,-4.25,-8.5,9.59000015258789,-0.8100000023841858,-2.009999990463257,9.529999732971191,-0.7200000286102295,-2.1700000762939453,43982319
1749118382343163056,8.1875,-4.25,-8.4375,9.619999885559082,-0.6800000071525574,-2.0,9.529999732971191,-0.6899999976158142,-2.190000057220459,43982343
1749118382359212307,7.5625,-4.125,-8.4375,9.600000381469728,-0.6600000262260437,-2.049999952316284,9.529999732971191,-0.6700000166893005,-2.190000057220459,43982359
1749118382384939694,7.125,-4.3125,-8.0625,9.600000381469728,-0.6800000071525574,-2.069999933242798,9.529999732971191,-0.6399999856948853,-2.2100000381469727,43982384
1749118382399070174,7.125,-4.1875,-7.875,9.56999969482422,-0.6700000166893005,-2.049999952316284,9.529999732971191,-0.6299999952316284,-2.2100000381469727,43982399
1749118382417152447,6.1875,-4.125,-7.5,9.5600004196167,-0.6499999761581421,-2.069999933242798,9.529999732971191,-0.6100000143051147,-2.220000028610229,43982417
1749118382442901969,5.375,-4.25,-6.9375,9.539999961853027,-0.6399999856948853,-2.109999895095825,9.520000457763672,-0.5899999737739563,-2.240000009536743,43982442
1749118382462918914,5.4375,-4.25,-6.625,9.550000190734863,-0.6600000262260437,-2.0899999141693115,9.520000457763672,-0.5799999833106995,-2.240000009536743,43982462
1749118382479934919,5.875,-4.5,-6.1875,9.56999969482422,-0.6100000143051147,-2.0999999046325684,9.520000457763672,-0.5600000023841858,-2.259999990463257,43982479
1749118382498823107,5.9375,-4.5625,-6.0,9.529999732971191,-0.5699999928474426,-2.150000095367432,9.520000457763672,-0.550000011920929,-2.2699999809265137,43982498
1749118382517899585,5.875,-4.375,-5.75,9.56999969482422,-0.5699999928474426,-2.180000066757202,9.520000457763672,-0.5299999713897705,-2.2799999713897705,43982517
1749118382542276475,5.5,-4.1875,-5.0,9.520000457763672,-0.4399999976158142,-2.190000057220459,9.510000228881836,-0.5199999809265137,-2.299999952316284,43982542
1749118382565085116,4.75,-4.1875,-4.625,9.529999732971191,-0.4900000095367431,-2.190000057220459,9.510000228881836,-0.5099999904632568,-2.309999942779541,43982565
1749118382596125500,4.5625,-4.0625,-3.875,9.520000457763672,-0.5400000214576721,-2.2300000190734863,9.510000228881836,-0.5,-2.319999933242798,43982596
1749118382597815418,4.625,-4.0625,-3.75,9.5600004196167,-0.550000011920929,-2.200000047683716,9.510000228881836,-0.4900000095367431,-2.3299999237060547,43982597
1749118382623132362,4.5,-3.8125,-3.375,9.56999969482422,-0.4799999892711639,-2.25,9.5,-0.4799999892711639,-2.3399999141693115,43982623
1749118382646987112,3.25,-3.4375,-2.625,9.550000190734863,-0.5,-2.319999933242798,9.5,-0.4699999988079071,-2.359999895095825,43982646
1749118382663716401,2.9375,-3.1875,-2.3125,9.520000457763672,-0.5,-2.309999942779541,9.5,-0.4699999988079071,-2.359999895095825,43982663
1749118382682892272,2.8125,-3.0,-1.625,9.5600004196167,-0.4699999988079071,-2.240000009536743,9.5,-0.4699999988079071,-2.369999885559082,43982682
1749118382700327867,2.6875,-2.9375,-1.4375,9.550000190734863,-0.5099999904632568,-2.259999990463257,9.5,-0.4600000083446502,-2.380000114440918,43982700
1749118382718012636,2.6875,-2.75,-1.125,9.539999961853027,-0.5199999809265137,-2.299999952316284,9.489999771118164,-0.4600000083446502,-2.390000104904175,43982718
1749118382744130329,2.1875,-2.5,-0.75,9.510000228881836,-0.5699999928474426,-2.289999961853028,9.489999771118164,-0.4600000083446502,-2.400000095367432,43982744
1749118382762851130,2.125,-2.375,-0.5625,9.510000228881836,-0.550000011920929,-2.289999961853028,9.489999771118164,-0.4600000083446502,-2.400000095367432,43982762
1749118382787056078,3.0625,-2.4375,-0.5625,9.529999732971191,-0.449999988079071,-2.319999933242798,9.489999771118164,-0.4699999988079071,-2.4100000858306885,43982787
1749118382811938882,2.5625,-2.3125,-0.3125,9.5600004196167,-0.4300000071525574,-2.319999933242798,9.489999771118164,-0.4699999988079071,-2.4100000858306885,43982811
1749118382819197647,1.3125,-1.9375,-0.0625,9.510000228881836,-0.550000011920929,-2.3399999141693115,9.489999771118164,-0.4699999988079071,-2.4200000762939453,43982819
1749118382843934465,1.125,-1.6875,-0.0625,9.510000228881836,-0.5899999737739563,-2.2799999713897705,9.479999542236328,-0.4699999988079071,-2.430000066757202,43982843
1749118382869230486,1.5,-1.875,0.0625,9.520000457763672,-0.5699999928474426,-2.2799999713897705,9.479999542236328,-0.4699999988079071,-2.430000066757202,43982869
1749118382900471920,1.0,-1.6875,-0.125,9.529999732971191,-0.5699999928474426,-2.319999933242798,9.479999542236328,-0.4799999892711639,-2.430000066757202,43982900
1749118382914216005,0.875,-1.6875,-0.125,9.520000457763672,-0.5299999713897705,-2.3399999141693115,9.479999542236328,-0.4799999892711639,-2.440000057220459,43982914
1749118382928074999,0.4375,-1.4375,-0.3125,9.5,-0.5799999833106995,-2.3499999046325684,9.479999542236328,-0.4799999892711639,-2.440000057220459,43982928
1749118382954740156,0.3125,-1.3125,-0.3125,9.470000267028809,-0.6000000238418579,-2.3399999141693115,9.479999542236328,-0.4799999892711639,-2.450000047683716,43982954
1749118382974074747,0.25,-1.4375,-0.3125,9.479999542236328,-0.5699999928474426,-2.3399999141693115,9.479999542236328,-0.4799999892711639,-2.450000047683716,43982974
1749118382989110120,0.5625,-1.125,-0.125,9.5,-0.5299999713897705,-2.3499999046325684,9.479999542236328,-0.4799999892711639,-2.450000047683716,43982989
1749118382998327485,0.4375,-1.1875,-0.1875,9.510000228881836,-0.5400000214576721,-2.369999885559082,9.479999542236328,-0.4799999892711639,-2.450000047683716,43982998
1749118383022994838,0.0,-1.1875,0.125,9.539999961853027,-0.5199999809265137,-2.359999895095825,9.470000267028809,-0.4799999892711639,-2.4600000381469727,43983022
1749118383048382381,-0.0625,-1.0,0.4375,9.510000228881836,-0.550000011920929,-2.3499999046325684,9.470000267028809,-0.4799999892711639,-2.4600000381469727,43983048
1749118383061901073,-0.125,-0.8125,0.8125,9.510000228881836,-0.550000011920929,-2.380000114440918,9.470000267028809,-0.4900000095367431,-2.4600000381469727,43983061
1749118383088954431,-0.25,-0.6875,1.0,9.529999732971191,-0.5299999713897705,-2.390000104904175,9.470000267028809,-0.4900000095367431,-2.4600000381469727,43983088
1749118383096713976,-0.25,-0.625,1.125,9.520000457763672,-0.550000011920929,-2.369999885559082,9.470000267028809,-0.4900000095367431,-2.4600000381469727,43983096
1749118383122082440,-0.625,-0.4375,1.5,9.510000228881836,-0.5899999737739563,-2.390000104904175,9.470000267028809,-0.5,-2.4600000381469727,43983122
1749118383144039488,-0.625,-0.4375,1.6875,9.489999771118164,-0.6000000238418579,-2.390000104904175,9.470000267028809,-0.5,-2.4600000381469727,43983144
1749118383158130862,-0.875,-0.4375,1.75,9.5,-0.5899999737739563,-2.400000095367432,9.470000267028809,-0.5099999904632568,-2.4600000381469727,43983158
1749118383182957522,-0.875,0.0625,2.0625,9.520000457763672,-0.6200000047683716,-2.380000114440918,9.470000267028809,-0.5199999809265137,-2.4600000381469727,43983182
1749118383204189254,-1.0,0.125,2.1875,9.5600004196167,-0.5899999737739563,-2.390000104904175,9.470000267028809,-0.5199999809265137,-2.4600000381469727,43983204
1749118383222820386,-1.375,0.3125,2.25,9.510000228881836,-0.6200000047683716,-2.390000104904175,9.470000267028809,-0.5299999713897705,-2.4600000381469727,43983222
1749118383259711148,-1.1875,0.5625,2.5625,9.510000228881836,-0.6399999856948853,-2.369999885559082,9.470000267028809,-0.5400000214576721,-2.4600000381469727,43983259
1749118383263055813,-1.125,0.5,2.625,9.5,-0.6100000143051147,-2.380000114440918,9.470000267028809,-0.5400000214576721,-2.4600000381469727,43983263
1749118383282865418,-1.4375,0.8125,3.0,9.470000267028809,-0.6399999856948853,-2.4100000858306885,9.470000267028809,-0.550000011920929,-2.4600000381469727,43983282
1749118383309085000,-1.5625,0.75,3.0625,9.479999542236328,-0.6499999761581421,-2.359999895095825,9.470000267028809,-0.5600000023841858,-2.4600000381469727,43983309
1749118383328013554,-1.1875,0.6875,3.0,9.5,-0.6800000071525574,-2.380000114440918,9.470000267028809,-0.5699999928474426,-2.450000047683716,43983328
1749118383353475669,-0.8125,0.875,2.875,9.539999961853027,-0.75,-2.3499999046325684,9.470000267028809,-0.5799999833106995,-2.450000047683716,43983353
1749118383374210877,-0.75,1.0,2.6875,9.56999969482422,-0.7099999785423279,-2.390000104904175,9.470000267028809,-0.5799999833106995,-2.450000047683716,43983374
1749118383385070288,-0.75,1.3125,1.875,9.489999771118164,-0.7599999904632568,-2.369999885559082,9.470000267028809,-0.5899999737739563,-2.440000057220459,43983385
1749118383405931218,-1.0,1.4375,1.4375,9.4399995803833,-0.7799999713897705,-2.369999885559082,9.470000267028809,-0.5899999737739563,-2.440000057220459,43983405
1749118383421846492,-0.625,1.375,-0.1875,9.390000343322754,-0.8399999737739563,-2.359999895095825,9.470000267028809,-0.6000000238418579,-2.440000057220459,43983421
1749118383447762597,0.1875,0.6875,-1.0,9.4399995803833,-0.8199999928474426,-2.299999952316284,9.479999542236328,-0.6000000238418579,-2.430000066757202,43983447
1749118383463985982,0.5625,0.5625,-1.5625,9.5,-0.7900000214576721,-2.299999952316284,9.479999542236328,-0.6000000238418579,-2.430000066757202,43983463
1749118383489744843,1.0625,0.25,-2.375,9.529999732971191,-0.7300000190734863,-2.3299999237060547,9.479999542236328,-0.5899999737739563,-2.430000066757202,43983489
1749118383497974534,1.0,0.3125,-2.6875,9.5600004196167,-0.6800000071525574,-2.3499999046325684,9.479999542236328,-0.5899999737739563,-2.430000066757202,43983497
1749118383523009711,0.875,0.25,-3.0,9.520000457763672,-0.7099999785423279,-2.359999895095825,9.479999542236328,-0.5799999833106995,-2.430000066757202,43983523
1749118383549185901,-0.0625,0.5625,-2.8125,9.489999771118164,-0.6299999952316284,-2.369999885559082,9.479999542236328,-0.5699999928474426,-2.4200000762939453,43983549
1749118383557046693,-0.3125,0.5625,-2.8125,9.5,-0.6700000166893005,-2.3299999237060547,9.479999542236328,-0.5699999928474426,-2.4200000762939453,43983557
1749118383583102253,-0.0625,0.8125,-2.5625,9.56999969482422,-0.6399999856948853,-2.359999895095825,9.479999542236328,-0.550000011920929,-2.4200000762939453,43983583
1749118383605258714,0.0625,0.9375,-2.375,9.550000190734863,-0.5699999928474426,-2.299999952316284,9.479999542236328,-0.550000011920929,-2.4200000762939453,43983605
1749118383622018034,-0.625,1.4375,-2.0,9.520000457763672,-0.6000000238418579,-2.3299999237060547,9.479999542236328,-0.5400000214576721,-2.4100000858306885,43983622
1749118383641225427,-0.1875,1.75,-1.875,9.510000228881836,-0.6000000238418579,-2.3499999046325684,9.489999771118164,-0.5299999713897705,-2.400000095367432,43983641
1749118383667279119,-0.4375,1.75,-1.75,9.489999771118164,-0.5799999833106995,-2.299999952316284,9.489999771118164,-0.5299999713897705,-2.400000095367432,43983667
1749118383682135309,-0.1875,1.625,-1.6875,9.479999542236328,-0.6000000238418579,-2.3299999237060547,9.489999771118164,-0.5199999809265137,-2.390000104904175,43983682
1749118383703880713,0.125,1.75,-1.625,9.520000457763672,-0.6499999761581421,-2.309999942779541,9.489999771118164,-0.5199999809265137,-2.390000104904175,43983703
1749118383724744546,0.8125,1.75,-1.5625,9.489999771118164,-0.6200000047683716,-2.319999933242798,9.489999771118164,-0.5199999809265137,-2.380000114440918,43983724
1749118383742143412,0.9375,1.9375,-1.75,9.520000457763672,-0.5699999928474426,-2.299999952316284,9.489999771118164,-0.5099999904632568,-2.369999885559082,43983742
1749118383757603531,0.6875,2.0625,-1.8125,9.550000190734863,-0.6000000238418579,-2.319999933242798,9.5,-0.5099999904632568,-2.369999885559082,43983757
1749118383780254325,1.3125,2.25,-1.9375,9.510000228881836,-0.6200000047683716,-2.289999961853028,9.5,-0.5,-2.359999895095825,43983780
1749118383797940725,1.4375,2.25,-2.0,9.479999542236328,-0.6200000047683716,-2.2799999713897705,9.5,-0.5,-2.3499999046325684,43983797
1749118383817969268,1.625,2.3125,-1.9375,9.479999542236328,-0.6200000047683716,-2.2799999713897705,9.5,-0.5,-2.3499999046325684,43983817
1749118383845037112,3.3125,2.1875,-2.5,9.609999656677246,-0.6399999856948853,-2.2300000190734863,9.510000228881836,-0.4900000095367431,-2.3299999237060547,43983845
1749118383857970099,3.5625,2.25,-2.5625,9.59000015258789,-0.6200000047683716,-2.200000047683716,9.510000228881836,-0.4900000095367431,-2.3299999237060547,43983857
1749118383885449999,3.1875,2.375,-2.8125,9.5,-0.5600000023841858,-2.259999990463257,9.510000228881836,-0.4799999892711639,-2.309999942779541,43983885
1749118383899109872,3.3125,2.375,-2.6875,9.449999809265137,-0.5099999904632568,-2.2300000190734863,9.510000228881836,-0.4799999892711639,-2.309999942779541,43983899
1749118383927887031,3.0,2.3125,-2.5625,9.529999732971191,-0.5699999928474426,-2.190000057220459,9.510000228881836,-0.4699999988079071,-2.299999952316284,43983927
1749118383954082199,2.25,2.0,-1.6875,9.630000114440918,-0.4699999988079071,-2.0999999046325684,9.520000457763672,-0.4699999988079071,-2.289999961853028,43983954
1749118383978672626,1.75,1.8125,-1.1875,9.609999656677246,-0.4399999976158142,-2.119999885559082,9.520000457763672,-0.4699999988079071,-2.2799999713897705,43983978
1749118384002150631,0.0625,1.5,0.5625,9.579999923706056,-0.4300000071525574,-2.130000114440918,9.520000457763672,-0.4699999988079071,-2.2699999809265137,43984002
1749118384054326140,-0.4375,1.3125,1.3125,9.520000457763672,-0.4000000059604645,-2.0799999237060547,9.520000457763672,-0.4699999988079071,-2.2699999809265137,43984054
1749118384079147934,-2.0625,0.9375,2.9375,9.600000381469728,-0.4000000059604645,-2.0899999141693115,9.520000457763672,-0.4699999988079071,-2.259999990463257,43984079
1749118384082856533,-4.3125,0.625,4.5625,9.539999961853027,-0.4699999988079071,-2.119999885559082,9.520000457763672,-0.4900000095367431,-2.259999990463257,43984082
1749118384096737109,-4.9375,0.5,4.9375,9.539999961853027,-0.5899999737739563,-2.119999885559082,9.520000457763672,-0.4900000095367431,-2.259999990463257,43984096
1749118384107910327,-4.1875,-0.25,4.3125,9.520000457763672,-0.7699999809265137,-2.119999885559082,9.520000457763672,-0.5099999904632568,-2.259999990463257,43984107
1749118384119862466,-3.6875,-0.5625,3.9375,9.550000190734863,-0.8100000023841858,-2.119999885559082,9.520000457763672,-0.5199999809265137,-2.259999990463257,43984119
1749118384139055324,-2.375,-0.8125,2.4375,9.5,-0.7900000214576721,-2.200000047683716,9.520000457763672,-0.5400000214576721,-2.259999990463257,43984139
1749118384148926847,-1.5,-1.375,0.0,9.489999771118164,-0.8399999737739563,-2.200000047683716,9.520000457763672,-0.5400000214576721,-2.259999990463257,43984148
1749118384157250727,-1.1875,-1.5,-0.6875,9.5,-0.8299999833106995,-2.2100000381469727,9.520000457763672,-0.5400000214576721,-2.259999990463257,43984157
1749118384180883553,-0.25,-1.8125,-3.0625,9.59000015258789,-0.7099999785423279,-2.180000066757202,9.520000457763672,-0.5400000214576721,-2.2699999809265137,43984180
1749118384203098178,-0.3125,-1.75,-3.5,9.619999885559082,-0.699999988079071,-2.2100000381469727,9.520000457763672,-0.5400000214576721,-2.2699999809265137,43984203
1749118384218936402,-0.4375,-1.6875,-4.0,9.520000457763672,-0.6000000238418579,-2.220000028610229,9.520000457763672,-0.5199999809265137,-2.2799999713897705,43984218
1749118384244164986,-1.1875,-2.125,-4.0625,9.4399995803833,-0.5400000214576721,-2.180000066757202,9.520000457763672,-0.5099999904632568,-2.289999961853028,43984244
1749118384257099481,-1.4375,-2.3125,-3.6875,9.550000190734863,-0.5,-2.130000114440918,9.520000457763672,-0.5,-2.289999961853028,43984257
1749118384283253675,-3.0625,-2.625,-2.0625,9.369999885559082,-0.4799999892711639,-2.0999999046325684,9.510000228881836,-0.4799999892711639,-2.299999952316284,43984283
1749118384308072968,-3.0625,-2.625,-2.0625,9.449999809265137,-0.5699999928474426,-2.119999885559082,9.510000228881836,-0.4799999892711639,-2.299999952316284,43984308
1749118384318044187,-2.375,-3.5,-1.4375,9.56999969482422,-0.3300000131130218,-2.200000047683716,9.510000228881836,-0.4699999988079071,-2.319999933242798,43984318
1749118384343296354,-5.0,-3.0625,1.0,9.720000267028809,-0.2800000011920929,-2.319999933242798,9.510000228881836,-0.4699999988079071,-2.3299999237060547,43984343
1749118384368074359,-7.8125,-2.0625,3.4375,9.619999885559082,-0.3499999940395355,-2.2799999713897705,9.510000228881836,-0.4699999988079071,-2.3299999237060547,43984368
1749118384380066787,-7.75,-1.6875,5.8125,9.649999618530272,-0.3499999940395355,-2.2699999809265137,9.5,-0.4799999892711639,-2.3399999141693115,43984380
1749118384400071427,-7.25,-1.75,7.125,9.649999618530272,-0.3400000035762787,-2.2300000190734863,9.5,-0.4900000095367431,-2.3499999046325684,43984400
1749118384429819435,-6.9375,-0.75,9.9375,9.420000076293944,-0.6399999856948853,-2.440000057220459,9.5,-0.5199999809265137,-2.3499999046325684,43984429
1749118384452156362,-7.5625,-0.6875,10.3125,9.520000457763672,-1.0099999904632568,-2.369999885559082,9.5,-0.550000011920929,-2.359999895095825,43984452
1749118384482248286,-6.0,-0.6875,9.625,9.520000457763672,-0.9399999976158142,-2.289999961853028,9.5,-0.5600000023841858,-2.359999895095825,43984482
1749118384499766304,-2.0625,-0.5,5.75,9.43000030517578,-1.0299999713897705,-2.400000095367432,9.489999771118164,-0.5899999737739563,-2.359999895095825,43984499
1749118384505137808,-1.4375,-0.5,4.375,9.420000076293944,-1.0499999523162842,-2.430000066757202,9.489999771118164,-0.6000000238418579,-2.359999895095825,43984505
1749118384519146275,0.4375,-0.1875,1.1875,9.4399995803833,-0.8999999761581421,-2.4200000762939453,9.489999771118164,-0.6200000047683716,-2.359999895095825,43984519
1749118384544009628,1.6875,0.1875,-1.875,9.390000343322754,-0.8299999833106995,-2.3299999237060547,9.489999771118164,-0.6200000047683716,-2.359999895095825,43984544
1749118384557965512,2.0,0.1875,-2.5625,9.489999771118164,-0.800000011920929,-2.259999990463257,9.489999771118164,-0.6200000047683716,-2.359999895095825,43984557
1749118384582218975,2.5,0.25,-2.8125,9.56999969482422,-0.5199999809265137,-2.319999933242798,9.489999771118164,-0.6100000143051147,-2.359999895095825,43984582
1749118384597710598,1.375,0.25,-2.4375,9.609999656677246,-0.4799999892711639,-2.289999961853028,9.489999771118164,-0.6000000238418579,-2.359999895095825,43984597
1749118384645076781,-1.8125,1.0,0.5625,9.579999923706056,-0.449999988079071,-2.2799999713897705,9.489999771118164,-0.6000000238418579,-2.359999895095825,43984645
1749118384697943372,-3.0625,1.25,3.0,9.520000457763672,-0.5199999809265137,-2.25,9.489999771118164,-0.6100000143051147,-2.3499999046325684,43984697
1749118384726169324,-3.125,1.1875,3.9375,9.4399995803833,-0.6700000166893005,-2.2300000190734863,9.489999771118164,-0.6100000143051147,-2.3499999046325684,43984726
1749118384747958149,-1.6875,0.8125,5.25,9.510000228881836,-0.7599999904632568,-2.309999942779541,9.489999771118164,-0.6299999952316284,-2.3499999046325684,43984747
1749118384769990463,-1.375,1.0,5.125,9.510000228881836,-0.8100000023841858,-2.289999961853028,9.489999771118164,-0.6399999856948853,-2.3499999046325684,43984769
1749118384777416125,-1.25,1.0625,4.75,9.510000228881836,-0.8600000143051147,-2.3299999237060547,9.489999771118164,-0.6600000262260437,-2.3399999141693115,43984777
1749118384789337427,-1.6875,1.5,2.9375,9.449999809265137,-0.8799999952316284,-2.319999933242798,9.489999771118164,-0.6800000071525574,-2.3399999141693115,43984789
1749118384799171666,-1.625,1.6875,2.5,9.40999984741211,-1.0700000524520874,-2.309999942779541,9.489999771118164,-0.6800000071525574,-2.3299999237060547,43984799
1749118384810240284,2.25,0.75,-0.5,9.380000114440918,-1.0399999618530271,-2.200000047683716,9.489999771118164,-0.699999988079071,-2.3299999237060547,43984810
1749118384825053247,3.75,0.25,-1.4375,9.300000190734863,-1.0499999523162842,-2.289999961853028,9.489999771118164,-0.699999988079071,-2.319999933242798,43984825
1749118384831977651,6.0625,-0.5625,-3.6875,9.5,-1.0199999809265137,-2.400000095367432,9.5,-0.699999988079071,-2.319999933242798,43984831
1749118384844118429,2.0625,-0.0625,-5.3125,9.460000038146973,-0.75,-2.259999990463257,9.5,-0.6899999976158142,-2.319999933242798,43984844
1749118384870285853,0.625,0.125,-5.5625,9.529999732971191,-0.800000011920929,-2.240000009536743,9.5,-0.6800000071525574,-2.319999933242798,43984870
1749118384885206681,0.9375,-0.75,-5.3125,9.6899995803833,-0.5199999809265137,-1.950000047683716,9.5,-0.6499999761581421,-2.319999933242798,43984885
1749118384904067338,0.3125,-1.125,-4.625,9.729999542236328,-0.3199999928474426,-2.0899999141693115,9.5,-0.6399999856948853,-2.319999933242798,43984904
1749118384918926493,-3.9375,-1.0,-0.0625,9.56999969482422,-0.1000000014901161,-2.220000028610229,9.5,-0.6299999952316284,-2.3299999237060547,43984918
1749118384944083331,-8.4375,-0.375,4.75,9.470000267028809,-0.3300000131130218,-2.309999942779541,9.5,-0.6399999856948853,-2.3299999237060547,43984944
1749118384973016599,-9.625,-0.0625,7.0625,9.59000015258789,-0.3700000047683716,-2.1600000858306885,9.5,-0.6499999761581421,-2.3299999237060547,43984973
1749118384978911220,-11.375,1.0625,12.9375,9.800000190734863,-0.3300000131130218,-1.950000047683716,9.5,-0.6700000166893005,-2.319999933242798,43984978
1749118384998170280,-12.25,1.125,14.875,9.710000038146973,-0.5799999833106995,-2.130000114440918,9.5,-0.6899999976158142,-2.319999933242798,43984998
1749118385020205565,-9.8125,1.125,18.5625,9.619999885559082,-0.6700000166893005,-2.4200000762939453,9.489999771118164,-0.7599999904632568,-2.319999933242798,43985020
1749118385043806666,-7.5625,0.6875,20.0,9.449999809265137,-0.7099999785423279,-2.4600000381469727,9.489999771118164,-0.8199999928474426,-2.319999933242798,43985043
1749118385058214716,-7.3125,0.75,20.4375,9.399999618530272,-0.8500000238418579,-2.4600000381469727,9.479999542236328,-0.8500000238418579,-2.319999933242798,43985058
1749118385083895361,-7.5625,1.6875,20.375,9.210000038146973,-1.2799999713897705,-2.430000066757202,9.470000267028809,-0.9399999976158142,-2.319999933242798,43985083
1749118385097952437,-7.25,1.9375,19.5,9.220000267028809,-1.3799999952316284,-2.430000066757202,9.470000267028809,-0.9700000286102296,-2.319999933242798,43985097
1749118385121905800,-4.9375,1.875,15.5,9.699999809265137,-1.3600000143051147,-2.2799999713897705,9.470000267028809,-1.0499999523162842,-2.309999942779541,43985121
1749118385154193863,-5.6875,2.875,13.0625,9.529999732971191,-1.3300000429153442,-2.369999885559082,9.460000038146973,-1.090000033378601,-2.309999942779541,43985154
1749118385164798146,-7.25,3.875,11.8125,9.470000267028809,-1.3600000143051147,-2.369999885559082,9.460000038146973,-1.100000023841858,-2.299999952316284,43985164
1749118385182090905,-7.5,5.0625,8.625,9.220000267028809,-1.3700000047683716,-2.4200000762939453,9.460000038146973,-1.1399999856948853,-2.2799999713897705,43985182
1749118385199255150,-7.25,5.0625,7.875,9.25,-1.399999976158142,-2.4200000762939453,9.460000038146973,-1.149999976158142,-2.2799999713897705,43985199
1749118385223039827,-6.4375,5.125,6.3125,9.4399995803833,-1.3600000143051147,-2.309999942779541,9.460000038146973,-1.1799999475479126,-2.259999990463257,43985223
1749118385259192008,-6.5,4.9375,6.0,9.449999809265137,-1.2899999618530271,-2.240000009536743,9.460000038146973,-1.2000000476837158,-2.240000009536743,43985259
1749118385265075751,-6.3125,4.5625,5.875,9.449999809265137,-1.340000033378601,-2.1700000762939453,9.460000038146973,-1.2000000476837158,-2.240000009536743,43985265
1749118385279124623,-3.75,3.0625,5.5625,9.109999656677246,-1.7699999809265137,-2.2100000381469727,9.470000267028809,-1.2300000190734863,-2.220000028610229,43985279
1749118385306932708,-0.5625,1.875,5.125,9.210000038146973,-1.7999999523162842,-2.140000104904175,9.460000038146973,-1.2400000095367432,-2.220000028610229,43985306
1749118385319058963,7.6875,0.0,1.875,9.510000228881836,-1.409999966621399,-2.25,9.460000038146973,-1.2599999904632568,-2.220000028610229,43985319
1749118385342752450,5.875,0.4375,1.4375,9.470000267028809,-1.25,-2.4200000762939453,9.460000038146973,-1.2699999809265137,-2.2100000381469727,43985342
1749118385358113474,3.25,0.9375,1.5,9.529999732971191,-1.309999942779541,-2.4200000762939453,9.460000038146973,-1.2699999809265137,-2.2100000381469727,43985358
1749118385378879221,-2.25,2.8125,1.5625,9.720000267028809,-1.2200000286102295,-2.0899999141693115,9.460000038146973,-1.2799999713897705,-2.200000047683716,43985378
1749118385397187911,-3.9375,3.625,1.6875,9.699999809265137,-1.2400000095367432,-2.0,9.470000267028809,-1.2799999713897705,-2.190000057220459,43985397
1749118385423890669,-5.625,3.6875,1.3125,9.34000015258789,-1.5099999904632568,-2.039999961853028,9.470000267028809,-1.2799999713897705,-2.180000066757202,43985423
1749118385442783897,-3.0625,2.5625,0.5,9.239999771118164,-1.590000033378601,-2.200000047683716,9.470000267028809,-1.2799999713897705,-2.1700000762939453,43985442
1749118385468918651,-1.8125,2.0625,-0.25,9.329999923706056,-1.5700000524520874,-2.2699999809265137,9.470000267028809,-1.2799999713897705,-2.1700000762939453,43985468
1749118385482154808,-1.1875,1.3125,-0.625,9.380000114440918,-1.3300000429153442,-2.1700000762939453,9.470000267028809,-1.2799999713897705,-2.1600000858306885,43985482
1749118385507063756,-1.8125,1.1875,-0.75,9.350000381469728,-1.350000023841858,-2.109999895095825,9.470000267028809,-1.2799999713897705,-2.1600000858306885,43985507
1749118385520034949,-2.0,0.8125,-1.4375,9.5600004196167,-1.5299999713897705,-2.0,9.470000267028809,-1.2699999809265137,-2.1600000858306885,43985520
1749118385542016708,-0.375,0.375,-2.5625,9.550000190734863,-1.350000023841858,-2.059999942779541,9.479999542236328,-1.2699999809265137,-2.1600000858306885,43985542
1749118385566937262,-0.5,0.1875,-2.8125,9.619999885559082,-1.340000033378601,-2.0899999141693115,9.479999542236328,-1.2599999904632568,-2.1600000858306885,43985566
1749118385579118223,-1.5,-0.0625,-3.25,9.59000015258789,-1.2999999523162842,-2.140000104904175,9.479999542236328,-1.25,-2.1600000858306885,43985579
1749118385606975972,-2.125,0.375,-3.5625,9.529999732971191,-1.2899999618530271,-2.119999885559082,9.479999542236328,-1.2400000095367432,-2.1600000858306885,43985606
1749118385620392816,-4.5625,0.875,-4.0625,9.619999885559082,-1.3300000429153442,-2.059999942779541,9.479999542236328,-1.2200000286102295,-2.150000095367432,43985620
1749118385646230758,-4.375,1.25,-4.5,9.270000457763672,-1.2000000476837158,-2.0999999046325684,9.489999771118164,-1.2000000476837158,-2.150000095367432,43985646
1749118385659831976,-5.0,1.375,-4.5,9.170000076293944,-1.2599999904632568,-2.190000057220459,9.489999771118164,-1.190000057220459,-2.150000095367432,43985659
1749118385680253274,-4.3125,0.75,-4.1875,9.520000457763672,-1.2200000286102295,-2.2699999809265137,9.489999771118164,-1.159999966621399,-2.150000095367432,43985680
1749118385706171107,-3.6875,0.5,-4.0,9.619999885559082,-1.0800000429153442,-2.190000057220459,9.489999771118164,-1.159999966621399,-2.150000095367432,43985706
1749118385719086597,-6.0,1.5,-1.875,9.56999969482422,-1.0700000524520874,-2.130000114440918,9.489999771118164,-1.1399999856948853,-2.150000095367432,43985719
1749118385742911644,-7.0625,2.125,-0.5625,9.550000190734863,-1.0499999523162842,-2.059999942779541,9.5,-1.1299999952316284,-2.140000104904175,43985742
1749118385763136339,-7.5,2.1875,0.4375,9.670000076293944,-1.0299999713897705,-2.069999933242798,9.5,-1.1299999952316284,-2.140000104904175,43985763
1749118385783147980,-8.9375,3.125,2.5625,9.670000076293944,-1.1399999856948853,-2.0899999141693115,9.5,-1.1299999952316284,-2.130000114440918,43985783
1749118385806944498,-9.4375,3.5,3.0,9.649999618530272,-1.1799999475479126,-2.0999999046325684,9.5,-1.1299999952316284,-2.130000114440918,43985806
1749118385818836047,-10.0625,3.5625,2.875,9.220000267028809,-1.5499999523162842,-2.200000047683716,9.5,-1.1299999952316284,-2.109999895095825,43985818
1749118385841073183,-6.8125,2.9375,1.5625,9.25,-1.5399999618530271,-2.1700000762939453,9.5,-1.1299999952316284,-2.109999895095825,43985841
1749118385857246937,-5.0,2.3125,0.75,9.510000228881836,-1.340000033378601,-2.049999952316284,9.5,-1.1299999952316284,-2.0999999046325684,43985857
1749118385881948219,-3.875,2.0625,0.1875,9.600000381469728,-1.090000033378601,-1.9600000381469729,9.510000228881836,-1.1299999952316284,-2.0999999046325684,43985881
1749118385940169958,-5.125,1.875,0.5625,9.5600004196167,-1.090000033378601,-1.940000057220459,9.510000228881836,-1.1299999952316284,-2.0999999046325684,43985940
1749118385968024999,-6.25,1.5,1.6875,9.529999732971191,-1.1799999475479126,-1.9700000286102293,9.510000228881836,-1.1299999952316284,-2.0899999141693115,43985968
1749118385974937137,-5.25,0.75,2.5,9.420000076293944,-1.1699999570846558,-1.9299999475479128,9.510000228881836,-1.1299999952316284,-2.0899999141693115,43985974
1749118385987721528,-4.5,0.5,3.0,9.449999809265137,-1.2400000095367432,-2.0299999713897705,9.510000228881836,-1.1299999952316284,-2.0899999141693115,43985987
1749118385998132848,-1.9375,-0.125,3.4375,9.649999618530272,-1.2300000190734863,-2.130000114440918,9.510000228881836,-1.149999976158142,-2.0899999141693115,43985998
1749118386008180517,-2.6875,0.25,3.5625,9.609999656677246,-1.0399999618530271,-2.150000095367432,9.5,-1.149999976158142,-2.0899999141693115,43986008
1749118386020245130,-6.8125,1.875,5.0625,9.56999969482422,-1.2799999713897705,-2.190000057220459,9.5,-1.1699999570846558,-2.0899999141693115,43986020
1749118386039872011,-6.9375,1.875,5.6875,9.489999771118164,-1.2999999523162842,-1.909999966621399,9.5,-1.1799999475479126,-2.0799999237060547,43986039
1749118386062184468,-5.9375,1.5,5.75,9.460000038146973,-1.3200000524520874,-1.8600000143051147,9.5,-1.190000057220459,-2.0799999237060547,43986062
1749118386086994640,-3.125,0.5625,5.5,9.4399995803833,-1.309999942779541,-1.950000047683716,9.5,-1.2200000286102295,-2.0799999237060547,43986086
1749118386100158882,-3.375,0.5625,5.375,9.4399995803833,-1.4600000381469729,-2.0999999046325684,9.5,-1.2200000286102295,-2.0799999237060547,43986100
1749118386119167790,-3.0625,-0.25,4.375,9.449999809265137,-1.399999976158142,-1.950000047683716,9.5,-1.25,-2.0799999237060547,43986119
1749118386145111271,-2.9375,-0.4375,3.8125,9.479999542236328,-1.399999976158142,-2.069999933242798,9.489999771118164,-1.2599999904632568,-2.0799999237060547,43986145
1749118386157003015,-2.625,-0.625,3.6875,9.489999771118164,-1.350000023841858,-2.0799999237060547,9.489999771118164,-1.2699999809265137,-2.0799999237060547,43986157
1749118386183166193,-2.5,-0.375,3.25,9.779999732971191,-1.3600000143051147,-1.9800000190734863,9.489999771118164,-1.2799999713897705,-2.0799999237060547,43986183
1749118386200924147,-2.5,-0.1875,3.1875,9.729999542236328,-1.2400000095367432,-2.0199999809265137,9.489999771118164,-1.2899999618530271,-2.0799999237060547,43986200
1749118386223205009,-6.25,1.5,3.4375,9.43000030517578,-1.350000023841858,-2.1700000762939453,9.489999771118164,-1.2999999523162842,-2.0799999237060547,43986223
1749118386240123410,-7.0625,1.75,2.9375,9.210000038146973,-1.6699999570846558,-2.190000057220459,9.489999771118164,-1.2999999523162842,-2.0799999237060547,43986240
1749118386259924936,-5.4375,1.4375,2.0625,9.210000038146973,-1.7300000190734863,-2.1700000762939453,9.489999771118164,-1.2999999523162842,-2.0799999237060547,43986259
1749118386282016737,-0.5625,0.0625,-0.75,9.59000015258789,-1.7300000190734863,-2.069999933242798,9.489999771118164,-1.2999999523162842,-2.0799999237060547,43986282
1749118386303863433,0.75,0.0625,-1.875,9.520000457763672,-1.6699999570846558,-2.049999952316284,9.489999771118164,-1.309999942779541,-2.0799999237060547,43986303
1749118386322221773,0.75,0.375,-4.0625,9.550000190734863,-1.5199999809265137,-2.130000114440918,9.489999771118164,-1.2999999523162842,-2.0799999237060547,43986322
1749118386364907012,0.4375,1.1875,-4.6875,9.600000381469728,-1.1299999952316284,-1.830000042915344,9.489999771118164,-1.2799999713897705,-2.069999933242798,43986364
1749118386369740783,-0.8125,1.625,-4.3125,9.520000457763672,-1.0700000524520874,-1.9299999475479128,9.489999771118164,-1.2799999713897705,-2.069999933242798,43986369
1749118386383159890,-2.0,1.125,-3.6875,9.43000030517578,-1.4600000381469729,-2.049999952316284,9.5,-1.25,-2.069999933242798,43986383
1749118386398474492,-0.6875,1.0,-3.8125,9.289999961853027,-1.2699999809265137,-2.0299999713897705,9.5,-1.25,-2.059999942779541,43986398
1749118386421071024,-1.25,0.0625,-3.0625,9.420000076293944,-1.6100000143051147,-2.0299999713897705,9.5,-1.2300000190734863,-2.059999942779541,43986421
1749118386441930505,3.5625,-0.375,-3.375,9.579999923706056,-1.2100000381469729,-1.940000057220459,9.5,-1.2300000190734863,-2.059999942779541,43986441
1749118386457336811,3.25,-0.25,-3.25,9.510000228881836,-1.1299999952316284,-1.950000047683716,9.5,-1.2200000286102295,-2.059999942779541,43986457
1749118386479785921,2.5625,-0.1875,-3.0625,9.449999809265137,-1.559999942779541,-2.1600000858306885,9.5,-1.2100000381469729,-2.059999942779541,43986479
1749118386506937124,4.0625,-0.3125,-3.625,9.40999984741211,-1.5,-2.140000104904175,9.5,-1.2100000381469729,-2.059999942779541,43986506
1749118386524242411,5.0625,-0.5625,-4.875,9.5,-1.309999942779541,-2.039999961853028,9.510000228881836,-1.2000000476837158,-2.059999942779541,43986524
1749118386550047369,4.5625,-0.5,-5.5,9.239999771118164,-1.4700000286102295,-2.140000104904175,9.510000228881836,-1.1799999475479126,-2.059999942779541,43986550
1749118386572310380,5.3125,-1.0625,-6.0,9.529999732971191,-1.409999966621399,-2.140000104904175,9.510000228881836,-1.1799999475479126,-2.059999942779541,43986572
1749118386579125464,3.9375,0.25,-6.8125,9.510000228881836,-1.2599999904632568,-2.0899999141693115,9.510000228881836,-1.149999976158142,-2.059999942779541,43986579
1749118386600028414,3.0625,0.375,-7.125,9.6899995803833,-1.2899999618530271,-2.109999895095825,9.510000228881836,-1.1399999856948853,-2.059999942779541,43986600
1749118386622043101,2.0625,1.25,-7.25,9.529999732971191,-1.2300000190734863,-2.069999933242798,9.520000457763672,-1.1100000143051147,-2.049999952316284,43986622
1749118386648236241,3.0,1.25,-6.875,9.34000015258789,-1.2000000476837158,-2.049999952316284,9.520000457763672,-1.090000033378601,-2.049999952316284,43986648
1749118386658294901,3.375,1.0625,-6.625,9.390000343322754,-1.2200000286102295,-2.039999961853028,9.520000457763672,-1.0800000429153442,-2.039999961853028,43986658
1749118386679697475,4.625,1.0,-5.8125,9.75,-0.800000011920929,-1.8200000524520876,9.529999732971191,-1.059999942779541,-2.039999961853028,43986679
1749118386703302057,2.625,1.8125,-5.0,9.579999923706056,-0.8100000023841858,-1.870000004768372,9.529999732971191,-1.0499999523162842,-2.039999961853028,43986703
1749118386721985648,0.625,2.1875,-4.5625,9.470000267028809,-1.2100000381469729,-2.109999895095825,9.529999732971191,-1.0299999713897705,-2.0299999713897705,43986721
1749118386739930215,0.9375,2.0625,-4.875,9.4399995803833,-1.090000033378601,-1.9600000381469729,9.539999961853027,-1.0099999904632568,-2.0199999809265137,43986739
1749118386760140674,1.125,1.4375,-4.875,9.5600004196167,-0.9900000095367432,-1.919999957084656,9.539999961853027,-1.0099999904632568,-2.0199999809265137,43986760
1749118386783053555,-0.125,0.5625,-2.875,9.279999732971191,-0.8899999856948853,-1.7999999523162842,9.539999961853027,-0.9900000095367432,-2.009999990463257,43986783
1749118386797811633,0.5625,-0.0625,-1.8125,9.279999732971191,-0.8700000047683716,-1.7599999904632568,9.539999961853027,-0.9800000190734864,-2.009999990463257,43986797
1749118386819143937,-1.4375,-0.25,0.8125,10.130000114440918,-0.7400000095367432,-1.919999957084656,9.539999961853027,-0.9800000190734864,-2.009999990463257,43986819
1749118386845244249,-6.1875,2.1875,3.0,9.949999809265137,-0.800000011920929,-2.1600000858306885,9.539999961853027,-0.9900000095367432,-2.009999990463257,43986845
1749118386857144448,-8.5625,3.625,3.75,9.75,-0.949999988079071,-2.25,9.539999961853027,-0.9900000095367432,-2.0,43986857
1749118386882153233,-4.8125,3.9375,3.25,9.229999542236328,-1.5700000524520874,-1.9600000381469729,9.539999961853027,-1.0,-1.9800000190734863,43986882
1749118386896989182,-1.0625,2.9375,2.0625,9.100000381469728,-1.5399999618530271,-1.830000042915344,9.550000190734863,-1.0,-1.9800000190734863,43986896
1749118386922048513,6.5625,-0.375,-2.4375,9.369999885559082,-1.5499999523162842,-1.7699999809265137,9.550000190734863,-1.0,-1.9700000286102293,43986922
1749118386943059193,8.75,-1.4375,-5.4375,9.539999961853027,-1.340000033378601,-1.919999957084656,9.550000190734863,-0.9900000095367432,-1.9700000286102293,43986943
1749118386957181238,7.0625,-1.5625,-6.5,9.710000038146973,-0.959999978542328,-1.940000057220459,9.550000190734863,-0.9900000095367432,-1.9800000190734863,43986957
1749118386981957260,0.25,-0.75,-6.5625,9.520000457763672,-1.1799999475479126,-1.870000004768372,9.550000190734863,-0.959999978542328,-1.9800000190734863,43986981
1749118387008044373,1.625,-1.1875,-6.4375,9.5,-1.2200000286102295,-1.8200000524520876,9.550000190734863,-0.949999988079071,-1.9800000190734863,43987008
1749118387032179589,8.8125,-2.875,-6.1875,9.359999656677246,-1.1799999475479126,-2.0899999141693115,9.550000190734863,-0.9300000071525574,-1.9900000095367432,43987032
1749118387056960619,10.5,-2.8125,-6.375,9.710000038146973,-0.7799999713897705,-2.319999933242798,9.550000190734863,-0.9100000262260436,-1.9900000095367432,43987056
1749118387088126030,5.8125,-1.625,-5.75,9.920000076293944,-0.4399999976158142,-2.4200000762939453,9.550000190734863,-0.9100000262260436,-2.0,43987088
1749118387096088360,-16.1875,3.75,-0.4375,9.84000015258789,-0.7599999904632568,-1.9600000381469729,9.550000190734863,-0.8899999856948853,-1.9900000095367432,43987096
1749118387106777347,-17.9375,4.1875,1.625,9.850000381469728,-0.9300000071525574,-1.649999976158142,9.5600004196167,-0.8799999952316284,-1.9900000095367432,43987106
1749118387119216197,-7.3125,2.0625,5.5625,9.600000381469728,-0.5600000023841858,-1.2699999809265137,9.5600004196167,-0.8899999856948853,-1.9800000190734863,43987119
1749118387139049127,-4.9375,1.125,8.6875,9.579999923706056,-0.6200000047683716,-1.6399999856948853,9.5600004196167,-0.9100000262260436,-1.9700000286102293,43987139
1749118387164943750,-5.75,1.0,10.25,9.5,-0.800000011920929,-2.0199999809265137,9.550000190734863,-0.9300000071525574,-1.9700000286102293,43987164
1749118387205059571,-7.125,1.875,11.5625,9.31999969482422,-1.3700000047683716,-2.609999895095825,9.550000190734863,-0.9800000190734864,-1.9700000286102293,43987205
1749118387229906925,-6.25,2.125,11.0625,9.399999618530272,-1.2799999713897705,-2.430000066757202,9.550000190734863,-0.9900000095367432,-1.9700000286102293,43987229
1749118387255236027,-8.5625,2.625,8.75,9.56999969482422,-1.6399999856948853,-1.7599999904632568,9.550000190734863,-1.0299999713897705,-1.9600000381469729,43987255
1749118387280185205,-4.625,1.75,4.375,9.4399995803833,-1.909999966621399,-1.7100000381469729,9.550000190734863,-1.0499999523162842,-1.950000047683716,43987280
1749118387307945646,-0.6875,0.8125,1.5,9.34000015258789,-1.9700000286102293,-1.75,9.550000190734863,-1.0499999523162842,-1.950000047683716,43987307
1749118387313033838,7.125,-2.1875,-6.5625,9.470000267028809,-1.6399999856948853,-1.840000033378601,9.550000190734863,-1.0299999713897705,-1.9600000381469729,43987313
1749118387324141097,8.3125,-2.8125,-7.9375,9.550000190734863,-1.2300000190734863,-1.8799999952316284,9.550000190734863,-1.0199999809265137,-1.9600000381469729,43987324
1749118387328882410,7.0,-2.9375,-9.3125,9.420000076293944,-0.949999988079071,-2.0299999713897705,9.550000190734863,-0.9900000095367432,-1.9700000286102293,43987328
1749118387339016308,4.4375,-2.9375,-8.4375,9.520000457763672,-0.9800000190734864,-1.9800000190734863,9.550000190734863,-0.959999978542328,-1.9800000190734863,43987339
1749118387357799824,4.375,-2.75,-8.125,9.5600004196167,-1.0099999904632568,-1.9299999475479128,9.550000190734863,-0.949999988079071,-1.9800000190734863,43987357
1749118387395163962,5.625,-2.875,-6.25,9.670000076293944,-0.8899999856948853,-1.909999966621399,9.550000190734863,-0.9200000166893004,-1.9900000095367432,43987395
1749118387409055581,5.5,-2.8125,-5.375,9.630000114440918,-0.8700000047683716,-1.950000047683716,9.550000190734863,-0.9200000166893004,-1.9900000095367432,43987409
1749118387420215693,6.0,-2.6875,-3.75,9.609999656677246,-1.0299999713897705,-2.0199999809265137,9.550000190734863,-0.8999999761581421,-2.0,43987420
1749118387441938514,6.125,-2.9375,-3.75,9.550000190734863,-1.1299999952316284,-2.009999990463257,9.550000190734863,-0.8999999761581421,-2.009999990463257,43987441
1749118387456915386,6.5625,-2.6875,-4.125,9.25,-1.2300000190734863,-2.0899999141693115,9.550000190734863,-0.8899999856948853,-2.0199999809265137,43987456
1749118387481019300,13.75,-5.9375,-9.875,9.609999656677246,-1.830000042915344,-1.9299999475479128,9.550000190734863,-0.8700000047683716,-2.0299999713897705,43987481
1749118387498045945,17.5,-6.625,-11.5625,9.539999961853027,-0.8100000023841858,-1.5800000429153442,9.550000190734863,-0.8500000238418579,-2.039999961853028,43987498
1749118387525912424,10.6875,-4.3125,-14.375,9.600000381469728,-1.2000000476837158,-2.359999895095825,9.550000190734863,-0.800000011920929,-2.059999942779541,43987525
1749118387544158279,8.6875,-3.25,-13.875,9.640000343322754,-0.5400000214576721,-2.319999933242798,9.550000190734863,-0.7599999904632568,-2.069999933242798,43987544
1749118387559048911,5.375,-2.5,-13.125,9.710000038146973,-0.6800000071525574,-2.140000104904175,9.550000190734863,-0.7400000095367432,-2.069999933242798,43987559
1749118387581914868,11.9375,-3.4375,-10.6875,9.710000038146973,-0.7699999809265137,-1.830000042915344,9.550000190734863,-0.699999988079071,-2.0899999141693115,43987581
1749118387618226738,14.5625,-3.9375,-9.5625,9.739999771118164,-0.7099999785423279,-1.8899999856948853,9.550000190734863,-0.6899999976158142,-2.0899999141693115,43987618
1749118387632989219,11.6875,-3.4375,-5.4375,9.56999969482422,-0.3700000047683716,-2.140000104904175,9.550000190734863,-0.6700000166893005,-2.0999999046325684,43987632
1749118387640006559,6.0625,-1.5,-3.75,9.609999656677246,-0.5099999904632568,-1.9800000190734863,9.550000190734863,-0.6600000262260437,-2.109999895095825,43987640
1749118387664008121,3.6875,-0.875,-3.3125,9.56999969482422,-0.5899999737739563,-1.9800000190734863,9.550000190734863,-0.6600000262260437,-2.109999895095825,43987664
1749118387679084953,5.9375,-1.25,-3.9375,9.510000228881836,-1.0800000429153442,-1.9900000095367432,9.550000190734863,-0.6399999856948853,-2.109999895095825,43987679
1749118387713209502,8.0625,-1.6875,-4.6875,9.59000015258789,-1.100000023841858,-2.0199999809265137,9.550000190734863,-0.6399999856948853,-2.109999895095825,43987713
1749118387724205811,10.25,-2.25,-5.9375,9.489999771118164,-0.6899999976158142,-2.150000095367432,9.550000190734863,-0.6200000047683716,-2.119999885559082,43987724
1749118387742802049,9.25,-2.625,-5.6875,9.170000076293944,-0.9300000071525574,-2.299999952316284,9.550000190734863,-0.6100000143051147,-2.130000114440918,43987742
1749118387768932286,10.5,-3.25,-6.0625,9.489999771118164,-1.100000023841858,-2.299999952316284,9.550000190734863,-0.6000000238418579,-2.130000114440918,43987768
1749118387788878525,14.875,-4.5,-6.3125,9.729999542236328,-0.5899999737739563,-1.8799999952316284,9.539999961853027,-0.6000000238418579,-2.150000095367432,43987788
1749118387807040286,14.3125,-4.4375,-6.1875,9.75,-0.6600000262260437,-1.950000047683716,9.539999961853027,-0.5899999737739563,-2.150000095367432,43987807
1749118387821243633,12.75,-4.25,-5.4375,9.670000076293944,-0.5799999833106995,-2.049999952316284,9.539999961853027,-0.5799999833106995,-2.1700000762939453,43987821
1749118387843072049,10.8125,-3.3125,-4.875,9.56999969482422,-0.6899999976158142,-2.109999895095825,9.539999961853027,-0.5699999928474426,-2.180000066757202,43987843
1749118387868989201,10.5625,-3.3125,-5.125,9.600000381469728,-0.7599999904632568,-2.119999885559082,9.539999961853027,-0.5699999928474426,-2.180000066757202,43987868
1749118387878029935,10.25,-3.3125,-4.9375,9.539999961853027,-0.6100000143051147,-2.0199999809265137,9.539999961853027,-0.5600000023841858,-2.190000057220459,43987878
1749118387898044979,9.625,-3.0,-5.0,9.449999809265137,-0.7200000286102295,-2.0899999141693115,9.529999732971191,-0.550000011920929,-2.200000047683716,43987898
1749118387923448132,8.6875,-3.5625,-5.0,9.520000457763672,-0.6800000071525574,-2.0899999141693115,9.529999732971191,-0.5400000214576721,-2.2100000381469727,43987923
1749118387947858930,8.625,-4.0,-5.3125,9.539999961853027,-0.699999988079071,-1.9900000095367432,9.529999732971191,-0.5299999713897705,-2.220000028610229,43987947
1749118387958987946,8.5625,-4.4375,-5.25,9.600000381469728,-0.6700000166893005,-2.0,9.529999732971191,-0.5299999713897705,-2.220000028610229,43987958
1749118387980131137,8.8125,-5.0625,-5.375,9.68000030517578,-0.550000011920929,-2.0899999141693115,9.529999732971191,-0.5199999809265137,-2.240000009536743,43987980
1749118387998952880,8.25,-5.1875,-5.5,9.640000343322754,-0.550000011920929,-2.130000114440918,9.529999732971191,-0.5099999904632568,-2.25,43987998
1749118388023834833,5.0625,-5.3125,-4.5,9.550000190734863,-0.6700000166893005,-2.119999885559082,9.520000457763672,-0.5,-2.2699999809265137,43988023
1749118388041399799,5.375,-5.5,-4.25,9.579999923706056,-0.5600000023841858,-2.119999885559082,9.520000457763672,-0.4900000095367431,-2.2799999713897705,43988041
1749118388057609643,5.5625,-5.6875,-4.125,9.649999618530272,-0.5400000214576721,-2.109999895095825,9.520000457763672,-0.4799999892711639,-2.289999961853028,43988057
1749118388083180625,3.5625,-5.75,-3.8125,9.600000381469728,-0.6600000262260437,-2.240000009536743,9.510000228881836,-0.4699999988079071,-2.309999942779541,43988083
1749118388107915562,3.3125,-5.875,-3.9375,9.56999969482422,-0.6600000262260437,-2.25,9.510000228881836,-0.4699999988079071,-2.319999933242798,43988107
1749118388118967496,4.125,-6.0625,-4.0625,9.289999961853027,-0.6200000047683716,-2.3399999141693115,9.5,-0.4600000083446502,-2.3499999046325684,43988118
1749118388142964039,4.9375,-6.4375,-4.0,9.399999618530272,-0.6899999976158142,-2.3399999141693115,9.5,-0.449999988079071,-2.369999885559082,43988142
1749118388170074649,5.4375,-6.9375,-4.0,9.5,-0.6000000238418579,-2.25,9.5,-0.449999988079071,-2.380000114440918,43988170
1749118388193586151,5.6875,-7.5625,-4.0,9.539999961853027,-0.4900000095367431,-2.2799999713897705,9.489999771118164,-0.4399999976158142,-2.4100000858306885,43988193
1749118388203993865,5.3125,-7.375,-4.0,9.489999771118164,-0.5,-2.3299999237060547,9.489999771118164,-0.4300000071525574,-2.4200000762939453,43988203
1749118388219083795,4.3125,-7.5625,-2.8125,9.59000015258789,-0.4300000071525574,-2.359999895095825,9.479999542236328,-0.4199999868869781,-2.4600000381469727,43988219
1749118388244938471,3.0,-7.625,-1.625,9.640000343322754,-0.4300000071525574,-2.319999933242798,9.470000267028809,-0.4199999868869781,-2.4800000190734863,43988244
1749118388260167776,2.6875,-7.5625,-1.125,9.550000190734863,-0.4199999868869781,-2.3499999046325684,9.470000267028809,-0.4199999868869781,-2.490000009536743,43988260
1749118388283869686,1.9375,-7.875,0.9375,9.329999923706056,-0.550000011920929,-2.470000028610229,9.460000038146973,-0.4300000071525574,-2.5199999809265137,43988283
1749118388308128019,2.625,-8.3125,1.3125,9.399999618530272,-0.550000011920929,-2.470000028610229,9.460000038146973,-0.4300000071525574,-2.539999961853028,43988308
1749118388318075138,4.0,-9.25,2.5,9.619999885559082,-0.449999988079071,-2.3399999141693115,9.4399995803833,-0.449999988079071,-2.5799999237060547,43988318
1749118388342183055,3.3125,-9.375,3.3125,9.510000228881836,-0.4799999892711639,-2.430000066757202,9.4399995803833,-0.4600000083446502,-2.5999999046325684,43988342
1749118388358098460,2.8125,-9.5,3.6875,9.449999809265137,-0.5899999737739563,-2.5199999809265137,9.43000030517578,-0.4699999988079071,-2.619999885559082,43988358
1749118388381162941,2.75,-10.3125,4.25,9.420000076293944,-0.6899999976158142,-2.490000009536743,9.420000076293944,-0.4900000095367431,-2.6600000858306885,43988381
1749118388405129025,3.4375,-10.75,4.1875,9.239999771118164,-0.7400000095367432,-2.569999933242798,9.40999984741211,-0.5,-2.680000066757202,43988405
1749118388418904623,5.6875,-11.6875,3.6875,9.460000038146973,-0.8199999928474426,-2.5799999237060547,9.399999618530272,-0.5299999713897705,-2.7300000190734863,43988418
1749118388442760328,6.875,-12.4375,2.9375,9.470000267028809,-0.7099999785423279,-2.5299999713897705,9.390000343322754,-0.5600000023841858,-2.759999990463257,43988442
1749118388459499257,7.25,-12.625,2.5625,9.460000038146973,-0.8199999928474426,-2.680000066757202,9.380000114440918,-0.5699999928474426,-2.7799999713897705,43988459
1749118388502961367,9.875,-13.375,1.8125,9.369999885559082,-0.8899999856948853,-2.7699999809265137,9.359999656677246,-0.6000000238418579,-2.8399999141693115,43988502
1749118388509820505,11.9375,-13.625,1.25,9.279999732971191,-0.800000011920929,-2.7799999713897705,9.359999656677246,-0.6100000143051147,-2.859999895095825,43988509
1749118388518222280,14.4375,-14.1875,0.75,9.229999542236328,-0.7799999713897705,-2.990000009536743,9.329999923706056,-0.6399999856948853,-2.9200000762939453,43988518
1749118388549798356,15.375,-14.0,0.4375,9.329999923706056,-0.7699999809265137,-3.009999990463257,9.31999969482422,-0.6499999761581421,-2.9600000381469727,43988549
1749118388577020134,15.3125,-13.375,0.375,9.420000076293944,-0.7400000095367432,-2.990000009536743,9.3100004196167,-0.6600000262260437,-2.9800000190734863,43988577
1749118388578777933,13.0625,-12.125,0.9375,9.4399995803833,-0.7300000190734863,-3.0999999046325684,9.289999961853027,-0.6800000071525574,-3.0299999713897705,43988578
1749118388615276262,13.5,-12.3125,1.5,9.279999732971191,-0.7799999713897705,-3.150000095367432,9.289999961853027,-0.6899999976158142,-3.049999952316284,43988615
1749118388621662403,10.75,-11.125,1.9375,9.170000076293944,-0.9100000262260436,-3.140000104904175,9.270000457763672,-0.7200000286102295,-3.0999999046325684,43988621
1749118388638139283,11.9375,-10.375,1.5,9.079999923706056,-0.9800000190734864,-3.3299999237060547,9.260000228881836,-0.7400000095367432,-3.130000114440918,43988638
1749118388661055493,12.625,-10.5625,1.0,9.100000381469728,-1.1299999952316284,-3.2300000190734863,9.25,-0.7599999904632568,-3.1600000858306885,43988661
1749118388679332990,13.125,-9.6875,1.4375,8.949999809265137,-0.8299999833106995,-3.180000066757202,9.229999542236328,-0.7799999713897705,-3.190000057220459,43988679
1749118388699050440,13.625,-10.0,2.3125,9.119999885559082,-0.8899999856948853,-3.140000104904175,9.229999542236328,-0.7900000214576721,-3.200000047683716,43988699
1749118388723919300,12.5625,-9.4375,3.5625,9.56999969482422,-0.699999988079071,-2.900000095367432,9.210000038146973,-0.8299999833106995,-3.240000009536743,43988723
1749118388740098675,12.125,-9.1875,4.9375,9.369999885559082,-1.159999966621399,-3.2799999713897705,9.199999809265137,-0.8500000238418579,-3.2699999809265137,43988740
1749118388762184817,14.125,-9.0,5.3125,9.399999618530272,-1.0700000524520874,-3.369999885559082,9.1899995803833,-0.8899999856948853,-3.289999961853028,43988762
1749118388782892687,14.5625,-6.1875,4.875,9.43000030517578,-1.1399999856948853,-3.430000066757202,9.18000030517578,-0.9200000166893004,-3.309999942779541,43988782
1749118388803169451,13.25,-4.625,4.1875,9.289999961853027,-1.25,-3.5299999713897705,9.170000076293944,-0.9399999976158142,-3.309999942779541,43988803
1749118388818818593,13.25,-1.4375,-0.875,8.779999732971191,-1.6100000143051147,-3.559999942779541,9.170000076293944,-0.959999978542328,-3.319999933242798,43988818
1749118388840076126,15.125,-0.5,-4.625,9.010000228881836,-1.4500000476837158,-3.400000095367432,9.170000076293944,-0.959999978542328,-3.309999942779541,43988840
1749118388863965494,15.6875,0.0625,-6.375,9.140000343322754,-1.309999942779541,-3.309999942779541,9.170000076293944,-0.959999978542328,-3.309999942779541,43988863
1749118388878266766,14.125,1.3125,-9.8125,9.1899995803833,-1.1799999475479126,-3.180000066757202,9.18000030517578,-0.949999988079071,-3.299999952316284,43988878
1749118388903070610,13.875,1.25,-10.4375,9.140000343322754,-1.149999976158142,-3.200000047683716,9.18000030517578,-0.9399999976158142,-3.289999961853028,43988903
1749118388919845336,11.125,1.3125,-10.5625,9.239999771118164,-0.8199999928474426,-3.259999990463257,9.1899995803833,-0.9100000262260436,-3.2799999713897705,43988919
1749118388942913314,8.8125,2.0,-9.375,9.31999969482422,-0.8399999737739563,-3.140000104904175,9.1899995803833,-0.8899999856948853,-3.2699999809265137,43988942
1749118388960129814,8.5625,2.25,-8.75,9.350000381469728,-0.8500000238418579,-3.150000095367432,9.199999809265137,-0.8799999952316284,-3.2699999809265137,43988960
1749118388984308840,7.875,2.375,-7.0625,9.3100004196167,-0.9399999976158142,-3.190000057220459,9.199999809265137,-0.8600000143051147,-3.25,43988984
1749118388998093236,8.1875,2.625,-6.5,9.289999961853027,-0.9900000095367432,-3.1700000762939453,9.210000038146973,-0.8500000238418579,-3.25,43988998
1749118389017947219,8.8125,3.125,-6.125,9.279999732971191,-0.9700000286102296,-3.1700000762939453,9.210000038146973,-0.8399999737739563,-3.2300000190734863,43989017
1749118389042968438,7.5,3.75,-6.25,9.229999542236328,-1.0499999523162842,-3.109999895095825,9.220000267028809,-0.8299999833106995,-3.2100000381469727,43989042
1749118389058012291,7.25,4.0,-6.5625,9.15999984741211,-1.0399999618530271,-3.109999895095825,9.229999542236328,-0.8199999928474426,-3.200000047683716,43989058
1749118389078965600,8.375,4.6875,-7.5625,9.300000190734863,-0.7900000214576721,-3.2100000381469727,9.229999542236328,-0.8100000023841858,-3.180000066757202,43989078
1749118389099084511,7.8125,5.0,-7.4375,9.31999969482422,-0.7200000286102295,-3.140000104904175,9.239999771118164,-0.7900000214576721,-3.1600000858306885,43989099
1749118389124175279,3.0625,7.0625,-5.5625,9.25,-0.8100000023841858,-3.2699999809265137,9.25,-0.7799999713897705,-3.140000104904175,43989124
1749118389144374989,1.9375,8.6875,-4.75,9.399999618530272,-0.75,-3.150000095367432,9.260000228881836,-0.7599999904632568,-3.109999895095825,43989144
1749118389157202321,1.5625,9.625,-4.375,9.460000038146973,-0.7599999904632568,-3.2300000190734863,9.270000457763672,-0.75,-3.0799999237060547,43989157
1749118389182075576,-3.0,13.4375,-3.8125,9.369999885559082,-0.949999988079071,-3.200000047683716,9.289999961853027,-0.7400000095367432,-3.039999961853028,43989182
1749118389204989714,-4.0,14.3125,-4.0,9.4399995803833,-0.9399999976158142,-3.140000104904175,9.289999961853027,-0.7300000190734863,-3.0199999809265137,43989204
1749118389224850798,-7.875,17.625,-5.3125,9.350000381469728,-1.0399999618530271,-3.0,9.31999969482422,-0.699999988079071,-2.950000047683716,43989224
1749118389257882902,-8.5625,18.5,-6.5,9.1899995803833,-0.6800000071525574,-2.809999942779541,9.34000015258789,-0.6800000071525574,-2.890000104904175,43989257
1749118389282906586,-10.4375,18.9375,-6.875,9.25,-0.5600000023841858,-2.7699999809265137,9.350000381469728,-0.6600000262260437,-2.859999895095825,43989282
1749118389296801756,-22.0,20.1875,-4.9375,9.619999885559082,-0.0599999986588954,-2.7699999809265137,9.380000114440918,-0.6100000143051147,-2.7799999713897705,43989296
1749118389301126525,-27.5,21.5,-4.0625,9.550000190734863,-0.1500000059604644,-2.869999885559082,9.390000343322754,-0.5899999737739563,-2.740000009536743,43989301
1749118389319880893,-41.5625,24.0625,-2.4375,9.34000015258789,-1.0199999809265137,-2.640000104904175,9.420000076293944,-0.5199999809265137,-2.640000104904175,43989319
1749118389339367230,-37.875,23.75,-4.1875,9.420000076293944,-1.090000033378601,-2.359999895095825,9.4399995803833,-0.4799999892711639,-2.569999933242798,43989339
1749118389363129216,-34.0,23.0,-5.375,9.5600004196167,-0.9100000262260436,-2.130000114440918,9.460000038146973,-0.4300000071525574,-2.509999990463257,43989363
1749118389382985128,-29.0625,21.75,-7.6875,9.43000030517578,-0.4300000071525574,-2.319999933242798,9.479999542236328,-0.3799999952316284,-2.440000057220459,43989382
1749118389398194294,-30.8125,21.875,-8.125,9.369999885559082,-0.6299999952316284,-2.4100000858306885,9.5,-0.3300000131130218,-2.369999885559082,43989398
1749118389417811038,-28.1875,20.6875,-8.875,9.489999771118164,-0.7099999785423279,-2.25,9.520000457763672,-0.2899999916553497,-2.309999942779541,43989417
1749118389438533714,-24.0625,20.0625,-11.125,9.520000457763672,-0.7799999713897705,-2.039999961853028,9.539999961853027,-0.25,-2.25,43989438
1749118389458053556,-21.25,19.3125,-12.1875,9.829999923706056,-0.4799999892711639,-1.9299999475479128,9.539999961853027,-0.2199999988079071,-2.2100000381469727,43989458
1749118389484314083,-19.0,18.4375,-14.6875,9.56999969482422,-0.5799999833106995,-2.0799999237060547,9.56999969482422,-0.1299999952316284,-2.130000114440918,43989484
1749118389497971410,-18.5,17.875,-15.0625,9.5600004196167,-0.699999988079071,-2.0799999237060547,9.56999969482422,-0.1000000014901161,-2.0999999046325684,43989497
1749118389520222016,-10.875,15.6875,-17.0,9.630000114440918,-0.209999993443489,-1.919999957084656,9.59000015258789,-0.0199999995529651,-2.0199999809265137,43989520
1749118389548219282,-9.75,14.875,-17.375,9.770000457763672,0.0199999995529651,-1.8899999856948853,9.600000381469728,0.0299999993294477,-1.9700000286102293,43989548
1749118389557220207,-10.75,14.875,-17.125,9.6899995803833,0.1099999994039535,-1.8899999856948853,9.609999656677246,0.1000000014901161,-1.919999957084656,43989557
1749118389582690409,-13.3125,13.8125,-16.25,9.529999732971191,-0.0799999982118606,-1.8899999856948853,9.619999885559082,0.1599999964237213,-1.870000004768372,43989582
1749118389608107794,-12.1875,13.375,-16.1875,9.470000267028809,-0.0799999982118606,-1.809999942779541,9.630000114440918,0.209999993443489,-1.830000042915344,43989608
1749118389619092327,-7.5,11.6875,-16.5625,9.56999969482422,0.1099999994039535,-1.6399999856948853,9.630000114440918,0.270000010728836,-1.7899999618530271,43989619
1749118389646877393,-4.3125,10.75,-16.8125,9.619999885559082,0.1700000017881393,-1.590000033378601,9.640000343322754,0.3199999928474426,-1.75,43989646
1749118389662733845,-2.25,9.5625,-16.25,9.710000038146973,0.4199999868869781,-1.4800000190734863,9.640000343322754,0.3799999952316284,-1.7200000286102295,43989662
1749118389678975244,-2.75,8.3125,-14.75,9.859999656677246,0.6299999952316284,-1.399999976158142,9.640000343322754,0.4300000071525574,-1.690000057220459,43989678
1749118389703112560,-4.1875,8.0,-13.75,9.850000381469728,0.5,-1.3899999856948853,9.649999618530272,0.449999988079071,-1.6799999475479126,43989703
1749118389729987043,-3.9375,6.375,-10.875,9.850000381469728,0.5699999928474426,-1.4299999475479126,9.649999618530272,0.5099999904632568,-1.6399999856948853,43989729
1749118389796101996,-4.25,5.5,-9.4375,9.770000457763672,0.5299999713897705,-1.4500000476837158,9.649999618530272,0.550000011920929,-1.6200000047683716,43989796
1749118389818968637,-4.625,5.1875,-8.75,9.729999542236328,0.550000011920929,-1.4700000286102295,9.649999618530272,0.5600000023841858,-1.6100000143051147,43989818
1749118389845906198,-4.75,2.875,-7.5625,9.1899995803833,0.7799999713897705,-2.789999961853028,9.649999618530272,0.6000000238418579,-1.590000033378601,43989845
1749118389850168933,-10.0625,0.25,-6.0,9.5600004196167,0.7599999904632568,-1.409999966621399,9.649999618530272,0.6299999952316284,-1.5800000429153442,43989850
1749118389850372500,-15.5,2.0625,-3.3125,9.65999984741211,0.3600000143051147,-1.5499999523162842,9.649999618530272,0.6499999761581421,-1.5700000524520874,43989850
1749118389859839250,-13.75,1.625,-3.6875,9.649999618530272,0.3700000047683716,-1.3899999856948853,9.649999618530272,0.6700000166893005,-1.559999942779541,43989859
1749118389872006575,-12.3125,0.8125,-3.5625,9.779999732971191,0.2599999904632568,-1.2300000190734863,9.649999618530272,0.6899999976158142,-1.559999942779541,43989872
1749118389881937987,-5.875,1.6875,-4.6875,9.899999618530272,0.6200000047683716,-1.0199999809265137,9.649999618530272,0.699999988079071,-1.5499999523162842,43989881
1749118389898254702,-4.8125,2.3125,-4.875,9.81999969482422,0.5899999737739563,-1.0499999523162842,9.649999618530272,0.7200000286102295,-1.5399999618530271,43989898
1749118389922085968,-0.3125,2.9375,-5.1875,9.720000267028809,0.550000011920929,-1.1100000143051147,9.649999618530272,0.7400000095367432,-1.5299999713897705,43989922
1749118389937936178,2.8125,3.4375,-5.5625,9.710000038146973,0.5600000023841858,-1.1699999570846558,9.649999618530272,0.75,-1.5099999904632568,43989937
1749118389962044621,4.375,3.4375,-5.625,9.65999984741211,0.550000011920929,-1.2699999809265137,9.65999984741211,0.7599999904632568,-1.4900000095367432,43989962
1749118389978232806,8.375,3.6875,-6.4375,9.68000030517578,0.6200000047683716,-1.3600000143051147,9.65999984741211,0.7799999713897705,-1.4800000190734863,43989978
1749118390006001494,8.875,3.75,-6.6875,9.670000076293944,0.6600000262260437,-1.409999966621399,9.65999984741211,0.7799999713897705,-1.4700000286102295,43990006
1749118390019819456,8.5,3.25,-7.5625,9.65999984741211,0.6600000262260437,-1.5800000429153442,9.65999984741211,0.8100000023841858,-1.4600000381469729,43990019
1749118390043201530,7.4375,2.375,-8.0625,9.640000343322754,0.6800000071525574,-1.5299999713897705,9.65999984741211,0.8299999833106995,-1.4500000476837158,43990043
1749118390060142442,6.375,2.125,-8.5,9.670000076293944,0.6800000071525574,-1.4800000190734863,9.65999984741211,0.8500000238418579,-1.4500000476837158,43990060
1749118390083097901,4.25,1.1875,-9.625,9.789999961853027,0.7699999809265137,-1.350000023841858,9.649999618530272,0.8799999952316284,-1.4500000476837158,43990083
1749118390101793913,3.25,0.6875,-9.75,9.770000457763672,0.75,-1.3200000524520874,9.649999618530272,0.9100000262260436,-1.440000057220459,43990101
1749118390122106307,1.875,-0.0625,-10.875,9.779999732971191,0.75,-1.2599999904632568,9.649999618530272,0.9399999976158142,-1.440000057220459,43990122
1749118390147015890,1.625,-0.5625,-11.375,9.720000267028809,0.800000011920929,-1.2599999904632568,9.649999618530272,0.9700000286102296,-1.440000057220459,43990147
1749118390165201766,1.8125,-0.75,-11.375,9.760000228881836,0.8799999952316284,-1.2799999713897705,9.640000343322754,1.0099999904632568,-1.440000057220459,43990165
1749118390179009067,0.5625,-1.1875,-10.8125,9.68000030517578,1.0299999713897705,-1.309999942779541,9.640000343322754,1.0399999618530271,-1.440000057220459,43990179
1749118390201562313,0.0625,-1.375,-10.3125,9.68000030517578,1.0399999618530271,-1.350000023841858,9.640000343322754,1.059999942779541,-1.440000057220459,43990201
1749118390221906845,-0.75,-1.25,-8.75,9.529999732971191,1.100000023841858,-1.4800000190734863,9.630000114440918,1.100000023841858,-1.4500000476837158,43990221
1749118390240161706,-1.1875,-1.4375,-7.125,9.529999732971191,1.25,-1.4900000095367432,9.630000114440918,1.1299999952316284,-1.4500000476837158,43990240
1749118390257997035,-1.8125,-1.1875,-6.125,9.470000267028809,1.25,-1.4900000095367432,9.619999885559082,1.149999976158142,-1.4600000381469729,43990257
1749118390282200262,-2.5,-1.125,-3.4375,9.369999885559082,1.2400000095367432,-1.5800000429153442,9.619999885559082,1.159999966621399,-1.4600000381469729,43990282
1749118390301818098,-2.375,-1.125,-2.5,9.34000015258789,1.2100000381469729,-1.5800000429153442,9.619999885559082,1.1699999570846558,-1.4600000381469729,43990301
1749118390318964002,-1.5,-1.25,-0.0625,9.380000114440918,1.2799999713897705,-1.5299999713897705,9.619999885559082,1.1699999570846558,-1.4700000286102295,43990318
1749118390344862574,-2.1875,-1.1875,1.5625,9.43000030517578,1.25,-1.5099999904632568,9.619999885559082,1.1699999570846558,-1.4700000286102295,43990344
1749118390358017237,-2.9375,-1.25,2.375,9.470000267028809,1.1699999570846558,-1.5,9.619999885559082,1.159999966621399,-1.4800000190734863,43990358
1749118390379289575,-3.5625,-1.625,4.25,9.56999969482422,1.1200000047683716,-1.4299999475479126,9.619999885559082,1.149999976158142,-1.4800000190734863,43990379
1749118390407374780,-3.5625,-1.75,4.875,9.640000343322754,1.1399999856948853,-1.4299999475479126,9.619999885559082,1.1399999856948853,-1.4800000190734863,43990407
1749118390431993632,-4.1875,-1.875,6.6875,9.65999984741211,1.0499999523162842,-1.3700000047683716,9.619999885559082,1.1200000047683716,-1.4900000095367432,43990431
1749118390449062286,-4.0625,-1.75,7.625,9.710000038146973,1.0,-1.399999976158142,9.619999885559082,1.100000023841858,-1.4900000095367432,43990449
1749118390457346140,-4.0625,-1.625,8.0625,9.729999542236328,0.959999978542328,-1.3899999856948853,9.630000114440918,1.0700000524520874,-1.4900000095367432,43990457
1749118390482409544,-4.25,-1.5,8.8125,9.720000267028809,0.8500000238418579,-1.4199999570846558,9.630000114440918,1.0399999618530271,-1.5,43990482
1749118390496952770,-4.0,-1.4375,9.0,9.760000228881836,0.8700000047683716,-1.399999976158142,9.630000114440918,1.0099999904632568,-1.5,43990496
1749118390518181760,-5.9375,-1.4375,9.375,9.75,0.8199999928474426,-1.409999966621399,9.630000114440918,0.9800000190734864,-1.5,43990518
1749118390548119708,-7.125,-1.5,9.75,9.6899995803833,0.7900000214576721,-1.4600000381469729,9.640000343322754,0.959999978542328,-1.5,43990548
1749118390563426907,-7.5,-1.5625,9.5625,9.619999885559082,0.7400000095367432,-1.4600000381469729,9.640000343322754,0.9300000071525574,-1.5,43990563
1749118390578054465,-6.3125,-1.75,9.4375,9.609999656677246,0.7900000214576721,-1.4500000476837158,9.640000343322754,0.8999999761581421,-1.5099999904632568,43990578
1749118390602990836,-6.1875,-1.6875,9.3125,9.550000190734863,0.7699999809265137,-1.4900000095367432,9.640000343322754,0.8700000047683716,-1.5099999904632568,43990602
1749118390618495179,-5.5625,-1.8125,9.375,9.59000015258789,0.7599999904632568,-1.5299999713897705,9.649999618530272,0.8399999737739563,-1.5099999904632568,43990618
1749118390638065399,-5.375,-1.9375,9.6875,9.6899995803833,0.7699999809265137,-1.5199999809265137,9.649999618530272,0.8100000023841858,-1.5199999809265137,43990638
1749118390659960095,-5.3125,-1.625,10.0,9.75,0.6899999976158142,-1.5,9.649999618530272,0.7799999713897705,-1.5199999809265137,43990659
1749118390678881911,-3.8125,-1.3125,10.6875,9.770000457763672,0.6000000238418579,-1.5,9.649999618530272,0.75,-1.5299999713897705,43990678
1749118390707347466,-3.1875,-0.9375,10.75,9.770000457763672,0.5899999737739563,-1.4700000286102295,9.649999618530272,0.7099999785423279,-1.5299999713897705,43990707
1749118390718956708,-2.1875,-0.375,10.6875,9.75,0.5099999904632568,-1.4800000190734863,9.65999984741211,0.6800000071525574,-1.5299999713897705,43990718
1749118390738996570,-1.4375,-0.0625,10.0625,9.770000457763672,0.4799999892711639,-1.5199999809265137,9.65999984741211,0.6399999856948853,-1.5299999713897705,43990738
1749118390760180970,-1.3125,0.25,9.9375,9.720000267028809,0.3799999952316284,-1.6100000143051147,9.65999984741211,0.6100000143051147,-1.5299999713897705,43990760
1749118390782197644,-0.125,0.5,8.625,9.699999809265137,0.3700000047683716,-1.6399999856948853,9.65999984741211,0.5799999833106995,-1.5299999713897705,43990782
1749118390798465512,0.125,0.75,7.9375,9.65999984741211,0.3199999928474426,-1.659999966621399,9.670000076293944,0.550000011920929,-1.5299999713897705,43990798
1749118390819118652,-0.0625,0.625,6.0,9.720000267028809,0.2000000029802322,-1.649999976158142,9.670000076293944,0.5299999713897705,-1.5299999713897705,43990819
1749118390846046307,0.3125,0.625,4.25,9.6899995803833,0.2199999988079071,-1.5499999523162842,9.670000076293944,0.5099999904632568,-1.5299999713897705,43990846
1749118390857981135,0.8125,0.75,3.5,9.789999961853027,0.2899999916553497,-1.4900000095367432,9.670000076293944,0.4900000095367431,-1.5199999809265137,43990857
1749118390878847637,-0.375,1.0,1.625,9.739999771118164,0.2800000011920929,-1.5099999904632568,9.670000076293944,0.4799999892711639,-1.5199999809265137,43990878
1749118390902839604,-0.625,0.75,0.5625,9.699999809265137,0.3199999928474426,-1.4900000095367432,9.670000076293944,0.4799999892711639,-1.5199999809265137,43990902
1749118390919275514,-1.1875,0.4375,0.0,9.800000190734863,0.449999988079071,-1.559999942779541,9.670000076293944,0.4799999892711639,-1.5099999904632568,43990919
1749118390937984147,-3.1875,0.3125,0.4375,9.729999542236328,0.5899999737739563,-1.5800000429153442,9.670000076293944,0.4799999892711639,-1.5099999904632568,43990937
1749118390962865200,-4.75,0.3125,1.0625,9.699999809265137,0.4699999988079071,-1.690000057220459,9.670000076293944,0.4799999892711639,-1.5099999904632568,43990962
1749118390982950856,-8.5625,-0.25,2.4375,9.670000076293944,0.550000011920929,-1.6799999475479126,9.670000076293944,0.4799999892711639,-1.5099999904632568,43990982
1749118391008113243,-10.875,-0.875,3.9375,9.640000343322754,0.5099999904632568,-1.5299999713897705,9.670000076293944,0.4699999988079071,-1.5199999809265137,43991008
1749118391058067228,-12.5625,-1.1875,5.625,9.640000343322754,0.6100000143051147,-1.5299999713897705,9.670000076293944,0.4600000083446502,-1.5199999809265137,43991058
1749118391069161990,-14.4375,-1.375,7.3125,9.600000381469728,0.6000000238418579,-1.3799999952316284,9.670000076293944,0.4399999976158142,-1.5199999809265137,43991069
1749118391075101717,-15.125,-1.375,8.0625,9.529999732971191,0.550000011920929,-1.3899999856948853,9.670000076293944,0.4300000071525574,-1.5199999809265137,43991075
1749118391086950242,-14.0,-1.75,9.625,9.510000228881836,0.3899999856948852,-1.3899999856948853,9.670000076293944,0.4000000059604645,-1.5199999809265137,43991086
1749118391101923522,-13.4375,-1.75,10.125,9.579999923706056,0.3499999940395355,-1.3899999856948853,9.670000076293944,0.3799999952316284,-1.5299999713897705,43991101
1749118391123816718,-13.375,-1.875,11.6875,9.630000114440918,0.5699999928474426,-1.4700000286102295,9.670000076293944,0.3499999940395355,-1.5299999713897705,43991123
1749118391150834428,-16.4375,-2.1875,13.0625,9.510000228881836,0.3300000131130218,-1.649999976158142,9.670000076293944,0.3100000023841858,-1.5399999618530271,43991150
1749118391158128260,-16.9375,-2.6875,13.875,9.609999656677246,0.1299999952316284,-1.6299999952316284,9.670000076293944,0.2800000011920929,-1.5399999618530271,43991158
1749118391183025677,-15.5625,-2.875,14.0,9.720000267028809,0.1099999994039535,-1.5099999904632568,9.670000076293944,0.2399999946355819,-1.5499999523162842,43991183
1749118391208093602,-14.625,-3.0625,14.375,9.84000015258789,0.0799999982118606,-1.340000033378601,9.670000076293944,0.2000000029802322,-1.559999942779541,43991208
1749118391217982616,-13.875,-3.0625,14.125,9.829999923706056,0.0,-1.309999942779541,9.670000076293944,0.1599999964237213,-1.5700000524520874,43991217
1749118391242196961,-11.875,-2.875,13.3125,9.84000015258789,-0.1700000017881393,-1.340000033378601,9.670000076293944,0.1199999973177909,-1.5700000524520874,43991242
1749118391268154967,-10.625,-2.6875,13.0625,9.84000015258789,-0.1199999973177909,-1.3899999856948853,9.670000076293944,0.0799999982118606,-1.5700000524520874,43991268
1749118391279005160,-9.125,-2.4375,12.0,9.760000228881836,-0.0599999986588954,-1.3799999952316284,9.670000076293944,0.0399999991059303,-1.5800000429153442,43991279
1749118391299250076,-9.3125,-2.5,11.75,9.630000114440918,-0.1099999994039535,-1.5299999713897705,9.670000076293944,0.0099999997764825,-1.590000033378601,43991299
1749118391324236208,-8.5625,-2.875,11.0,9.600000381469728,-0.1500000059604644,-1.5499999523162842,9.670000076293944,-0.0199999995529651,-1.590000033378601,43991324
1749118391338300956,-9.125,-2.75,10.625,9.59000015258789,-0.1199999973177909,-1.6399999856948853,9.670000076293944,-0.050000000745058,-1.600000023841858,43991338
1749118391358959287,-8.375,-2.75,10.5,9.630000114440918,-0.3000000119209289,-1.6799999475479126,9.670000076293944,-0.0799999982118606,-1.6100000143051147,43991358
1749118391380190942,-4.5,-2.875,9.5,9.699999809265137,-0.4699999988079071,-1.7200000286102295,9.65999984741211,-0.1099999994039535,-1.6200000047683716,43991380
1749118391400251127,-2.3125,-2.8125,8.875,9.739999771118164,-0.4399999976158142,-1.7400000095367432,9.65999984741211,-0.1400000005960464,-1.6299999952316284,43991400
1749118391428113397,1.0625,-2.6875,7.75,9.84000015258789,-0.4600000083446502,-1.7000000476837158,9.65999984741211,-0.1599999964237213,-1.6399999856948853,43991428
1749118391445975575,4.0,-2.5625,5.75,9.81999969482422,-0.5299999713897705,-1.690000057220459,9.65999984741211,-0.1899999976158142,-1.649999976158142,43991445
1749118391471029738,4.9375,-2.625,5.0625,9.829999923706056,-0.5299999713897705,-1.659999966621399,9.65999984741211,-0.2199999988079071,-1.659999966621399,43991471
1749118391483144184,5.875,-2.5,3.25,9.779999732971191,-0.5400000214576721,-1.659999966621399,9.65999984741211,-0.2399999946355819,-1.6699999570846558,43991483
1749118391498212683,6.875,-2.375,0.5625,9.68000030517578,-0.5299999713897705,-1.6299999952316284,9.649999618530272,-0.25,-1.6699999570846558,43991498
1749118391519231433,7.25,-2.375,-0.375,9.65999984741211,-0.5899999737739563,-1.7300000190734863,9.649999618530272,-0.2599999904632568,-1.6799999475479126,43991519
1749118391538905460,8.5,-2.3125,-2.5,9.720000267028809,-0.5099999904632568,-1.7599999904632568,9.649999618530272,-0.270000010728836,-1.690000057220459,43991538
1749118391564051225,9.0625,-2.5,-3.5625,9.699999809265137,-0.4799999892711639,-1.7200000286102295,9.649999618530272,-0.2599999904632568,-1.690000057220459,43991564
1749118391578091957,9.125,-1.9375,-6.0,9.649999618530272,-0.5199999809265137,-1.7400000095367432,9.649999618530272,-0.25,-1.7000000476837158,43991578
1749118391623878094,9.625,-1.8125,-6.8125,9.670000076293944,-0.5099999904632568,-1.7599999904632568,9.649999618530272,-0.2399999946355819,-1.7100000381469729,43991623
1749118391624110142,12.125,-1.5625,-9.4375,9.65999984741211,-0.3300000131130218,-1.7599999904632568,9.649999618530272,-0.2199999988079071,-1.7100000381469729,43991624
1749118391637988837,12.0,-1.125,-10.375,9.720000267028809,-0.2399999946355819,-1.7599999904632568,9.649999618530272,-0.1899999976158142,-1.7100000381469729,43991637
1749118391665351776,11.375,-0.6875,-11.125,9.6899995803833,-0.1899999976158142,-1.809999942779541,9.649999618530272,-0.1599999964237213,-1.7200000286102295,43991665
1749118391682953916,10.25,-0.75,-11.0625,9.68000030517578,-0.0799999982118606,-1.75,9.649999618530272,-0.1299999952316284,-1.7200000286102295,43991682
1749118391698962881,9.125,-0.625,-10.8125,9.720000267028809,0.0,-1.7200000286102295,9.649999618530272,-0.1000000014901161,-1.7200000286102295,43991698
1749118391722803027,6.8125,-0.375,-9.5,9.710000038146973,0.1400000005960464,-1.7200000286102295,9.649999618530272,-0.0700000002980232,-1.7200000286102295,43991722
1749118391744863558,4.125,-0.3125,-7.6875,9.670000076293944,0.1199999973177909,-1.690000057220459,9.649999618530272,-0.050000000745058,-1.7200000286102295,43991744
1749118391756963180,3.3125,-0.375,-6.625,9.68000030517578,0.1199999973177909,-1.7000000476837158,9.649999618530272,-0.0299999993294477,-1.7200000286102295,43991756
1749118391777182441,1.8125,-0.375,-3.5625,9.6899995803833,0.1599999964237213,-1.6799999475479126,9.649999618530272,-0.0199999995529651,-1.7200000286102295,43991777
1749118391797972265,0.75,-0.3125,-1.5,9.649999618530272,0.0700000002980232,-1.6799999475479126,9.649999618530272,-0.0099999997764825,-1.7200000286102295,43991797
1749118391825948752,-0.0625,-0.375,-0.25,9.649999618530272,-0.0199999995529651,-1.7599999904632568,9.649999618530272,-0.0099999997764825,-1.7200000286102295,43991825
1749118391847927567,0.0,-0.375,0.5,9.649999618530272,-0.0799999982118606,-1.75,9.649999618530272,-0.0099999997764825,-1.7200000286102295,43991847
1749118391863835662,-0.1875,-0.25,0.75,9.6899995803833,-0.050000000745058,-1.7799999713897705,9.649999618530272,-0.0099999997764825,-1.7200000286102295,43991863
1749118391877898828,-1.25,0.0,0.6875,9.720000267028809,-0.1199999973177909,-1.7799999713897705,9.649999618530272,-0.0099999997764825,-1.7200000286102295,43991877
1749118391903933874,-1.125,0.125,0.1875,9.720000267028809,-0.1400000005960464,-1.7000000476837158,9.649999618530272,-0.0099999997764825,-1.7200000286102295,43991903
1749118391928030507,-1.6875,0.4375,-0.3125,9.729999542236328,-0.1199999973177909,-1.7400000095367432,9.649999618530272,-0.0099999997764825,-1.7200000286102295,43991928
1749118391940003043,-2.375,0.4375,-0.6875,9.6899995803833,-0.1000000014901161,-1.7000000476837158,9.649999618530272,-0.0099999997764825,-1.7200000286102295,43991940
1749118391963005644,-2.5625,0.625,-1.0,9.670000076293944,-0.0900000035762786,-1.7200000286102295,9.649999618530272,0.0,-1.7200000286102295,43991963
1749118391985913101,-3.25,0.75,-1.3125,9.630000114440918,-0.1000000014901161,-1.7400000095367432,9.649999618530272,0.0,-1.7100000381469729,43991985
1749118392002946914,-3.625,0.8125,-1.1875,9.640000343322754,-0.1299999952316284,-1.7100000381469729,9.649999618530272,0.0,-1.7100000381469729,43992002
1749118392018217904,-3.125,0.6875,-1.25,9.670000076293944,-0.0299999993294477,-1.649999976158142,9.649999618530272,0.0,-1.7100000381469729,43992018
1749118392043870518,-3.1875,1.0,-1.125,9.65999984741211,-0.0199999995529651,-1.6699999570846558,9.649999618530272,0.0099999997764825,-1.7100000381469729,43992043
1749118392057078047,-3.0,0.8125,-0.5,9.630000114440918,0.0,-1.690000057220459,9.649999618530272,0.0099999997764825,-1.7000000476837158,43992057
1749118392076761171,-3.0625,0.8125,-0.0625,9.65999984741211,0.0099999997764825,-1.690000057220459,9.649999618530272,0.0099999997764825,-1.7000000476837158,43992076
1749118392102930074,-3.125,0.875,0.375,9.649999618530272,0.0,-1.7000000476837158,9.649999618530272,0.0099999997764825,-1.7000000476837158,43992102
1749118392118589774,-3.125,1.0,1.1875,9.619999885559082,-0.0099999997764825,-1.7200000286102295,9.649999618530272,0.0099999997764825,-1.690000057220459,43992118
1749118392142019862,-3.375,0.9375,1.375,9.630000114440918,-0.0799999982118606,-1.7100000381469729,9.649999618530272,0.0099999997764825,-1.690000057220459,43992142
1749118392172038892,-3.0,0.8125,1.625,9.68000030517578,-0.050000000745058,-1.6699999570846558,9.649999618530272,0.0099999997764825,-1.690000057220459,43992172
1749118392177912685,-3.1875,1.0,1.875,9.720000267028809,-0.0399999991059303,-1.7200000286102295,9.65999984741211,0.0,-1.6799999475479126,43992177
1749118392201042096,-3.25,0.9375,2.0,9.720000267028809,-0.0700000002980232,-1.6399999856948853,9.65999984741211,0.0,-1.6799999475479126,43992201
1749118392223027911,-3.0,0.875,2.0625,9.68000030517578,-0.1400000005960464,-1.6399999856948853,9.65999984741211,0.0,-1.6799999475479126,43992223
1749118392246982879,-2.875,0.875,1.8125,9.699999809265137,-0.1599999964237213,-1.6399999856948853,9.65999984741211,0.0,-1.6699999570846558,43992246
1749118392267851791,-2.4375,0.75,1.75,9.670000076293944,-0.1099999994039535,-1.6399999856948853,9.65999984741211,-0.0099999997764825,-1.6699999570846558,43992267
1749118392280046853,-1.8125,0.8125,1.5625,9.6899995803833,-0.0799999982118606,-1.659999966621399,9.65999984741211,-0.0099999997764825,-1.6699999570846558,43992280
1749118392350058737,-1.6875,0.9375,1.3125,9.6899995803833,-0.1700000017881393,-1.7000000476837158,9.65999984741211,-0.0199999995529651,-1.6699999570846558,43992350
1749118392377251712,-1.0625,0.75,1.0,9.720000267028809,-0.2000000029802322,-1.659999966621399,9.65999984741211,-0.0199999995529651,-1.659999966621399,43992377
1749118392402018298,-0.3125,0.6875,0.75,9.720000267028809,-0.1500000059604644,-1.649999976158142,9.65999984741211,-0.0299999993294477,-1.659999966621399,43992402
1749118392418019403,0.0,0.6875,0.25,9.720000267028809,-0.1500000059604644,-1.6399999856948853,9.65999984741211,-0.0299999993294477,-1.659999966621399,43992418
1749118392436191795,0.25,0.6875,0.0,9.6899995803833,-0.1800000071525573,-1.6799999475479126,9.65999984741211,-0.0299999993294477,-1.659999966621399,43992436
1749118392442973981,0.4375,0.625,-0.3125,9.6899995803833,-0.1099999994039535,-1.649999976158142,9.65999984741211,-0.0299999993294477,-1.649999976158142,43992442
1749118392455913734,0.5,0.75,-0.8125,9.6899995803833,-0.1000000014901161,-1.649999976158142,9.65999984741211,-0.0299999993294477,-1.649999976158142,43992455
1749118392459078427,0.1875,0.5625,-0.9375,9.670000076293944,-0.1599999964237213,-1.6200000047683716,9.65999984741211,-0.0299999993294477,-1.649999976158142,43992459
1749118392472915579,1.0625,0.5,-1.3125,9.739999771118164,-0.1599999964237213,-1.6299999952316284,9.65999984741211,-0.0199999995529651,-1.649999976158142,43992472
1749118392476878636,1.375,0.5,-1.3125,9.760000228881836,-0.1500000059604644,-1.649999976158142,9.65999984741211,-0.0199999995529651,-1.649999976158142,43992476
1749118392497916994,1.875,0.5625,-1.5625,9.739999771118164,-0.2000000029802322,-1.6399999856948853,9.65999984741211,-0.0199999995529651,-1.649999976158142,43992497
1749118392523039483,2.75,0.6875,-2.25,9.699999809265137,-0.2199999988079071,-1.6200000047683716,9.65999984741211,-0.0199999995529651,-1.649999976158142,43992523
1749118392537082753,3.6875,0.875,-3.1875,9.670000076293944,-0.2000000029802322,-1.6200000047683716,9.65999984741211,-0.0099999997764825,-1.6399999856948853,43992537
1749118392561987861,4.3125,0.9375,-4.375,9.649999618530272,-0.2000000029802322,-1.659999966621399,9.65999984741211,0.0,-1.6399999856948853,43992561
1749118392587316148,4.4375,1.1875,-5.6875,9.670000076293944,-0.1899999976158142,-1.6699999570846558,9.65999984741211,0.0,-1.6399999856948853,43992587
1749118392598158579,4.3125,1.0625,-6.1875,9.729999542236328,-0.0900000035762786,-1.600000023841858,9.65999984741211,0.0199999995529651,-1.6299999952316284,43992598
1749118392618915994,4.5625,1.4375,-7.4375,9.710000038146973,-0.1199999973177909,-1.6200000047683716,9.65999984741211,0.0399999991059303,-1.6299999952316284,43992618
1749118392645996512,5.0625,1.625,-8.125,9.729999542236328,0.050000000745058,-1.659999966621399,9.670000076293944,0.0599999986588954,-1.6200000047683716,43992645
1749118392658140217,3.9375,1.75,-7.875,9.6899995803833,0.1000000014901161,-1.6399999856948853,9.670000076293944,0.0799999982118606,-1.6200000047683716,43992658
1749118392683882907,2.5,1.8125,-7.125,9.670000076293944,0.1500000059604644,-1.6799999475479126,9.670000076293944,0.1000000014901161,-1.6100000143051147,43992683
1749118392698082247,1.0625,1.6875,-6.1875,9.6899995803833,0.209999993443489,-1.6299999952316284,9.670000076293944,0.1199999973177909,-1.6100000143051147,43992698
1749118392717123155,0.0625,1.3125,-4.875,9.65999984741211,0.2199999988079071,-1.600000023841858,9.670000076293944,0.1400000005960464,-1.600000023841858,43992717
1749118392737972516,-1.125,1.375,-3.5625,9.640000343322754,0.2399999946355819,-1.5299999713897705,9.670000076293944,0.1599999964237213,-1.600000023841858,43992737
1749118392763981701,-1.875,1.25,-2.25,9.65999984741211,0.2300000041723251,-1.559999942779541,9.670000076293944,0.1700000017881393,-1.590000033378601,43992763
1749118392778620163,-2.3125,1.1875,-0.75,9.65999984741211,0.3199999928474426,-1.590000033378601,9.670000076293944,0.1700000017881393,-1.590000033378601,43992778
1749118392803924602,-3.8125,1.1875,1.1875,9.640000343322754,0.3400000035762787,-1.600000023841858,9.670000076293944,0.1700000017881393,-1.590000033378601,43992803
1749118392833006354,-5.4375,1.125,3.25,9.670000076293944,0.3300000131130218,-1.659999966621399,9.670000076293944,0.1700000017881393,-1.5800000429153442,43992833
1749118392837879273,-7.5625,1.1875,4.8125,9.609999656677246,0.2300000041723251,-1.6200000047683716,9.670000076293944,0.1599999964237213,-1.5800000429153442,43992837
1749118392863273210,-8.5,1.0625,5.5,9.609999656677246,0.1500000059604644,-1.6299999952316284,9.670000076293944,0.1400000005960464,-1.5700000524520874,43992863
1749118392882861071,-9.25,0.875,7.3125,9.579999923706056,0.1099999994039535,-1.5499999523162842,9.670000076293944,0.1299999952316284,-1.5700000524520874,43992882
1749118392901255724,-9.5,0.8125,7.9375,9.619999885559082,0.050000000745058,-1.4800000190734863,9.670000076293944,0.1099999994039535,-1.5700000524520874,43992901
1749118392926812302,-8.8125,0.625,8.6875,9.710000038146973,0.0599999986588954,-1.4500000476837158,9.670000076293944,0.0799999982118606,-1.5700000524520874,43992926
1749118392937848418,-8.375,0.75,9.0625,9.68000030517578,0.0,-1.4600000381469729,9.68000030517578,0.0599999986588954,-1.559999942779541,43992937
1749118392957114375,-8.625,0.9375,9.25,9.65999984741211,-0.1500000059604644,-1.5199999809265137,9.68000030517578,0.0299999993294477,-1.559999942779541,43992957
1749118392982152298,-7.25,0.5,8.875,9.75,-0.2199999988079071,-1.5399999618530271,9.68000030517578,0.0,-1.559999942779541,43992982
1749118392999202926,-5.5625,0.5,8.4375,9.779999732971191,-0.270000010728836,-1.5199999809265137,9.68000030517578,-0.0099999997764825,-1.559999942779541,43992999
1749118393023988979,-3.9375,0.375,7.3125,9.760000228881836,-0.3600000143051147,-1.5099999904632568,9.68000030517578,-0.0399999991059303,-1.559999942779541,43993023
1749118393037113945,-2.0625,0.3125,5.75,9.770000457763672,-0.4300000071525574,-1.4900000095367432,9.68000030517578,-0.0700000002980232,-1.5499999523162842,43993037
1749118393058118969,0.3125,0.25,3.5625,9.720000267028809,-0.5,-1.4900000095367432,9.68000030517578,-0.0900000035762786,-1.5499999523162842,43993058
1749118393077194639,2.625,0.125,0.875,9.670000076293944,-0.4699999988079071,-1.5099999904632568,9.68000030517578,-0.1099999994039535,-1.5499999523162842,43993077
1749118393110896762,3.875,-0.25,-1.8125,9.6899995803833,-0.449999988079071,-1.600000023841858,9.68000030517578,-0.1099999994039535,-1.5499999523162842,43993110
1749118393126776525,4.75,-0.25,-4.375,9.710000038146973,-0.3799999952316284,-1.600000023841858,9.68000030517578,-0.1099999994039535,-1.5499999523162842,43993126
1749118393140768470,5.0625,-0.625,-5.9375,9.739999771118164,-0.3000000119209289,-1.5499999523162842,9.68000030517578,-0.1000000014901161,-1.5499999523162842,43993140
1749118393156875042,5.6875,-0.5,-7.25,9.75,-0.209999993443489,-1.5099999904632568,9.68000030517578,-0.0799999982118606,-1.5499999523162842,43993156
1749118393178959099,6.375,-0.5625,-7.9375,9.6899995803833,-0.1199999973177909,-1.5499999523162842,9.68000030517578,-0.0599999986588954,-1.5499999523162842,43993178
1749118393197456608,7.25,-0.5,-8.0,9.65999984741211,-0.0299999993294477,-1.590000033378601,9.68000030517578,-0.0399999991059303,-1.5499999523162842,43993197
1749118393218137146,6.75,-0.5625,-7.5625,9.619999885559082,0.050000000745058,-1.590000033378601,9.68000030517578,-0.0199999995529651,-1.5499999523162842,43993218
1749118393241965160,6.25,-0.6875,-6.8125,9.630000114440918,0.0599999986588954,-1.5800000429153442,9.68000030517578,0.0,-1.559999942779541,43993241
1749118393264074522,5.25,-1.0,-5.8125,9.640000343322754,0.0700000002980232,-1.5299999713897705,9.68000030517578,0.0099999997764825,-1.559999942779541,43993264
1749118393277117297,4.625,-1.0625,-5.0625,9.640000343322754,0.1000000014901161,-1.559999942779541,9.68000030517578,0.0299999993294477,-1.559999942779541,43993277
1749118393303063089,4.125,-1.375,-4.0,9.68000030517578,0.1400000005960464,-1.5199999809265137,9.670000076293944,0.0399999991059303,-1.5700000524520874,43993303
1749118393317069391,2.875,-1.4375,-2.625,9.670000076293944,0.1599999964237213,-1.559999942779541,9.670000076293944,0.050000000745058,-1.5700000524520874,43993317
1749118393341896025,1.3125,-1.5625,-1.125,9.699999809265137,0.1500000059604644,-1.600000023841858,9.670000076293944,0.050000000745058,-1.5800000429153442,43993341
1749118393359312205,0.6875,-1.6875,0.0625,9.699999809265137,0.1000000014901161,-1.5399999618530271,9.670000076293944,0.050000000745058,-1.5800000429153442,43993359
1749118393384671370,0.3125,-1.6875,1.125,9.739999771118164,0.0799999982118606,-1.559999942779541,9.670000076293944,0.050000000745058,-1.590000033378601,43993384
1749118393398245425,-0.5,-1.6875,2.3125,9.779999732971191,0.0799999982118606,-1.5299999713897705,9.670000076293944,0.0399999991059303,-1.590000033378601,43993398
1749118393417152203,-1.1875,-1.6875,3.1875,9.75,-0.0299999993294477,-1.590000033378601,9.670000076293944,0.0299999993294477,-1.600000023841858,43993417
1749118393438053895,-1.4375,-1.5625,3.625,9.739999771118164,-0.0099999997764825,-1.5700000524520874,9.670000076293944,0.0199999995529651,-1.600000023841858,43993438
1749118393457125260,-1.625,-1.5625,3.6875,9.739999771118164,-0.1000000014901161,-1.6200000047683716,9.670000076293944,0.0099999997764825,-1.6100000143051147,43993457
1749118393482144956,-1.625,-1.3125,3.6875,9.699999809265137,-0.1000000014901161,-1.600000023841858,9.670000076293944,0.0,-1.6100000143051147,43993482
1749118393497140693,-1.1875,-1.3125,3.4375,9.699999809265137,-0.1199999973177909,-1.6100000143051147,9.670000076293944,0.0,-1.6200000047683716,43993497
1749118393517174314,-1.0,-1.25,2.9375,9.649999618530272,-0.1199999973177909,-1.6299999952316284,9.670000076293944,-0.0099999997764825,-1.6200000047683716,43993517
1749118393538001645,-0.5625,-1.25,2.375,9.640000343322754,-0.1700000017881393,-1.6399999856948853,9.670000076293944,-0.0199999995529651,-1.6200000047683716,43993538
1749118393557050431,-0.625,-1.25,1.8125,9.670000076293944,-0.1599999964237213,-1.6399999856948853,9.65999984741211,-0.0299999993294477,-1.6299999952316284,43993557
1749118393579123801,-0.375,-1.6875,1.0625,9.68000030517578,-0.2399999946355819,-1.6100000143051147,9.65999984741211,-0.0299999993294477,-1.6299999952316284,43993579
1749118393623001992,0.3125,-1.875,0.25,9.6899995803833,-0.1599999964237213,-1.5700000524520874,9.65999984741211,-0.0399999991059303,-1.6399999856948853,43993623
1749118393627115235,0.5,-2.125,-0.5,9.6899995803833,-0.1400000005960464,-1.590000033378601,9.65999984741211,-0.0399999991059303,-1.649999976158142,43993627
1749118393638973584,0.3125,-2.4375,-1.0,9.699999809265137,-0.1899999976158142,-1.6200000047683716,9.65999984741211,-0.0399999991059303,-1.649999976158142,43993638
1749118393664132366,0.875,-2.6875,-1.6875,9.649999618530272,-0.1700000017881393,-1.659999966621399,9.65999984741211,-0.0399999991059303,-1.659999966621399,43993664
1749118393678195742,1.125,-2.875,-2.375,9.640000343322754,-0.1800000071525573,-1.6399999856948853,9.65999984741211,-0.0299999993294477,-1.6699999570846558,43993678
1749118393698201653,1.6875,-3.1875,-2.9375,9.630000114440918,-0.209999993443489,-1.649999976158142,9.65999984741211,-0.0199999995529651,-1.6799999475479126,43993698
1749118393718056951,2.75,-3.625,-4.1875,9.609999656677246,-0.1599999964237213,-1.6799999475479126,9.649999618530272,-0.0199999995529651,-1.690000057220459,43993718
1749118393737904518,3.4375,-3.875,-5.1875,9.65999984741211,-0.1500000059604644,-1.7000000476837158,9.649999618530272,0.0,-1.7000000476837158,43993737
1749118393757960776,3.9375,-4.25,-5.8125,9.65999984741211,-0.1000000014901161,-1.7000000476837158,9.649999618530272,0.0,-1.7200000286102295,43993757
1749118393778019349,3.9375,-4.4375,-6.25,9.75,-0.0199999995529651,-1.7400000095367432,9.649999618530272,0.0199999995529651,-1.7300000190734863,43993778
1749118393799301821,3.25,-4.375,-6.3125,9.699999809265137,0.0799999982118606,-1.7200000286102295,9.640000343322754,0.0399999991059303,-1.75,43993799
1749118393817963913,1.75,-4.5625,-5.875,9.6899995803833,0.0599999986588954,-1.7100000381469729,9.640000343322754,0.0599999986588954,-1.7599999904632568,43993817
1749118393838183883,0.5625,-4.5625,-5.4375,9.670000076293944,0.1299999952316284,-1.7300000190734863,9.640000343322754,0.0799999982118606,-1.7799999713897705,43993838
1749118393858886641,-0.5625,-4.6875,-4.375,9.699999809265137,0.1800000071525573,-1.690000057220459,9.640000343322754,0.0900000035762786,-1.7899999618530271,43993858
1749118393877983212,-2.125,-4.75,-3.25,9.649999618530272,0.1599999964237213,-1.7899999618530271,9.630000114440918,0.1000000014901161,-1.809999942779541,43993877
1749118393902929263,-2.8125,-5.0,-1.9375,9.65999984741211,0.1800000071525573,-1.7899999618530271,9.630000114440918,0.1099999994039535,-1.8200000524520876,43993902
1749118393918270848,-4.625,-5.125,-0.75,9.65999984741211,0.2300000041723251,-1.8200000524520876,9.630000114440918,0.1199999973177909,-1.840000033378601,43993918
1749118393941219528,-7.25,-5.5625,0.0625,9.699999809265137,-0.0099999997764825,-1.7400000095367432,9.619999885559082,0.1199999973177909,-1.8600000143051147,43993941
1749118393963197180,-5.0625,-6.125,-0.5,9.619999885559082,-0.1599999964237213,-1.7000000476837158,9.619999885559082,0.1299999952316284,-1.870000004768372,43993963
1749118393977710727,-2.8125,-6.4375,-1.25,9.619999885559082,0.0,-1.870000004768372,9.609999656677246,0.1299999952316284,-1.8899999856948853,43993977
1749118393997951552,-1.6875,-6.625,-1.625,9.600000381469728,0.0700000002980232,-1.919999957084656,9.609999656677246,0.1400000005960464,-1.919999957084656,43993997
1749118394024263358,-2.625,-6.5625,-1.4375,9.579999923706056,0.0599999986588954,-1.9900000095367432,9.609999656677246,0.1400000005960464,-1.940000057220459,43994024
1749118394038432950,-3.0,-6.5625,-1.25,9.670000076293944,0.1899999976158142,-1.919999957084656,9.600000381469728,0.1500000059604644,-1.9600000381469729,43994038
1749118394060168542,-4.0625,-6.875,-0.75,9.670000076293944,0.1199999973177909,-1.940000057220459,9.600000381469728,0.1599999964237213,-1.9800000190734863,43994060
1749118394078057854,-3.125,-7.125,-0.25,9.670000076293944,0.1299999952316284,-1.899999976158142,9.59000015258789,0.1599999964237213,-2.0,43994078
1749118394100088705,-2.875,-7.125,0.125,9.670000076293944,0.2599999904632568,-1.9600000381469729,9.59000015258789,0.1599999964237213,-2.0199999809265137,43994100
1749118394118923712,-3.5,-7.1875,1.375,9.609999656677246,0.0799999982118606,-2.0,9.579999923706056,0.1599999964237213,-2.049999952316284,43994118
1749118394143103773,-3.0625,-7.125,2.1875,9.609999656677246,0.209999993443489,-2.059999942779541,9.579999923706056,0.1500000059604644,-2.069999933242798,43994143
1749118394157919783,-3.4375,-6.8125,3.0,9.5600004196167,0.1299999952316284,-2.0999999046325684,9.56999969482422,0.1500000059604644,-2.0899999141693115,43994157
1749118394183047612,-2.75,-6.75,3.6875,9.529999732971191,0.0700000002980232,-2.1700000762939453,9.56999969482422,0.1400000005960464,-2.109999895095825,43994183
1749118394200144972,-2.125,-6.5,3.9375,9.520000457763672,0.0299999993294477,-2.180000066757202,9.5600004196167,0.1299999952316284,-2.140000104904175,43994200
1749118394218952619,-0.8125,-6.5,3.5625,9.600000381469728,-0.0700000002980232,-2.180000066757202,9.5600004196167,0.1199999973177909,-2.1600000858306885,43994218
1749118394241213804,0.0,-6.0625,2.8125,9.579999923706056,-0.0700000002980232,-2.150000095367432,9.5600004196167,0.1099999994039535,-2.180000066757202,43994241
1749118394262093787,0.875,-6.0625,1.5,9.529999732971191,-0.209999993443489,-2.25,9.550000190734863,0.1000000014901161,-2.200000047683716,43994262
1749118394278190803,2.4375,-5.9375,-0.375,9.539999961853027,-0.1299999952316284,-2.190000057220459,9.550000190734863,0.0900000035762786,-2.220000028610229,43994278
1749118394300161349,2.75,-5.8125,-2.0,9.520000457763672,-0.0700000002980232,-2.2699999809265137,9.539999961853027,0.0900000035762786,-2.240000009536743,43994300
1749118394325530437,3.875,-5.9375,-3.125,9.510000228881836,-0.0900000035762786,-2.259999990463257,9.539999961853027,0.1000000014901161,-2.259999990463257,43994325
1749118394343079431,4.9375,-5.9375,-4.25,9.56999969482422,0.0,-2.2799999713897705,9.529999732971191,0.1000000014901161,-2.2699999809265137,43994343
1749118394360240557,6.125,-6.0625,-4.5625,9.59000015258789,-0.0299999993294477,-2.190000057220459,9.529999732971191,0.1099999994039535,-2.289999961853028,43994360
1749118394387064261,7.25,-6.375,-4.8125,9.56999969482422,0.0399999991059303,-2.259999990463257,9.520000457763672,0.1199999973177909,-2.309999942779541,43994387
1749118394409698653,7.875,-6.75,-4.4375,9.510000228881836,0.0799999982118606,-2.25,9.520000457763672,0.1299999952316284,-2.3299999237060547,43994409
1749118394426616207,8.25,-7.1875,-4.125,9.510000228881836,0.0199999995529651,-2.319999933242798,9.510000228881836,0.1299999952316284,-2.359999895095825,43994426
1749118394445980200,9.25,-7.75,-4.1875,9.529999732971191,0.0299999993294477,-2.309999942779541,9.510000228881836,0.1400000005960464,-2.380000114440918,43994445
1749118394471790864,10.4375,-8.0,-4.125,9.520000457763672,0.0900000035762786,-2.3299999237060547,9.5,0.1400000005960464,-2.4100000858306885,43994471
1749118394483043077,10.6875,-8.3125,-3.8125,9.579999923706056,0.0799999982118606,-2.319999933242798,9.489999771118164,0.1500000059604644,-2.430000066757202,43994483
1749118394505184380,10.875,-8.3125,-3.625,9.5,0.0299999993294477,-2.430000066757202,9.489999771118164,0.1500000059604644,-2.4600000381469727,43994505
1749118394529941024,11.5,-8.4375,-3.5625,9.460000038146973,0.1000000014901161,-2.4800000190734863,9.479999542236328,0.1500000059604644,-2.490000009536743,43994529
1749118394542662197,11.375,-8.25,-3.4375,9.380000114440918,0.0799999982118606,-2.5799999237060547,9.470000267028809,0.1500000059604644,-2.509999990463257,43994542
1749118394560215051,11.4375,-8.3125,-3.625,9.43000030517578,-0.0199999995529651,-2.5899999141693115,9.460000038146973,0.1500000059604644,-2.539999961853028,43994560
1749118394584417075,12.625,-8.1875,-4.3125,9.520000457763672,0.0299999993294477,-2.559999942779541,9.460000038146973,0.1500000059604644,-2.569999933242798,43994584
1749118394603985339,12.3125,-7.875,-4.5625,9.520000457763672,0.1199999973177909,-2.569999933242798,9.449999809265137,0.1599999964237213,-2.5899999141693115,43994603
1749118394624190174,11.9375,-7.5625,-4.4375,9.479999542236328,0.1500000059604644,-2.630000114440918,9.4399995803833,0.1599999964237213,-2.619999885559082,43994624
1749118394637035874,11.375,-7.3125,-4.0625,9.4399995803833,0.1599999964237213,-2.630000114440918,9.4399995803833,0.1599999964237213,-2.640000104904175,43994637
1749118394657263738,10.375,-7.3125,-3.4375,9.449999809265137,0.1800000071525573,-2.609999895095825,9.43000030517578,0.1599999964237213,-2.6700000762939453,43994657
1749118394683062618,9.5625,-7.3125,-2.8125,9.43000030517578,0.1800000071525573,-2.640000104904175,9.420000076293944,0.1700000017881393,-2.690000057220459,43994683
1749118394697312868,8.875,-7.4375,-2.0625,9.399999618530272,0.2000000029802322,-2.619999885559082,9.420000076293944,0.1599999964237213,-2.7100000381469727,43994697
1749118394729990107,8.375,-7.875,-1.25,9.40999984741211,0.1800000071525573,-2.619999885559082,9.40999984741211,0.1599999964237213,-2.740000009536743,43994729
1749118394735968118,7.5625,-8.4375,-0.4375,9.420000076293944,0.2199999988079071,-2.619999885559082,9.399999618530272,0.1599999964237213,-2.759999990463257,43994735
1749118394754722431,6.5,-8.75,0.8125,9.420000076293944,0.2000000029802322,-2.700000047683716,9.390000343322754,0.1500000059604644,-2.789999961853028,43994754
1749118394782126181,5.4375,-9.0625,2.3125,9.420000076293944,0.2300000041723251,-2.700000047683716,9.390000343322754,0.1400000005960464,-2.819999933242798,43994782
1749118394798170512,4.875,-9.5625,3.75,9.420000076293944,0.1400000005960464,-2.7699999809265137,9.380000114440918,0.1199999973177909,-2.8499999046325684,43994798
1749118394818296303,4.875,-9.875,5.3125,9.420000076293944,0.1800000071525573,-2.7300000190734863,9.369999885559082,0.1000000014901161,-2.880000114440918,43994818
1749118394838102198,4.875,-10.1875,6.8125,9.399999618530272,0.1500000059604644,-2.789999961853028,9.359999656677246,0.0799999982118606,-2.9100000858306885,43994838
1749118394856921175,5.0,-10.875,8.5625,9.43000030517578,0.0599999986588954,-2.8499999046325684,9.350000381469728,0.050000000745058,-2.940000057220459,43994856
1749118394903209887,5.3125,-11.0,10.5,9.40999984741211,0.0900000035762786,-2.9200000762939453,9.34000015258789,0.0099999997764825,-2.970000028610229,43994903
1749118394908025085,7.4375,-12.1875,12.625,9.329999923706056,0.050000000745058,-2.970000028610229,9.329999923706056,-0.0199999995529651,-3.009999990463257,43994908
1749118394918277707,12.375,-14.75,15.75,9.31999969482422,-0.0199999995529651,-2.970000028610229,9.3100004196167,-0.0799999982118606,-3.049999952316284,43994918
1749118394941938351,17.0,-16.6875,18.3125,9.289999961853027,-0.25,-3.0999999046325684,9.300000190734863,-0.1500000059604644,-3.0999999046325684,43994941
1749118394962983621,21.1875,-18.0,21.125,9.399999618530272,0.0099999997764825,-3.049999952316284,9.279999732971191,-0.2399999946355819,-3.1600000858306885,43994962
1749118394978294727,19.75,-17.125,23.5,9.399999618530272,-0.2199999988079071,-3.059999942779541,9.260000228881836,-0.3300000131130218,-3.2100000381469727,43994978
1749118395006015874,19.9375,-16.1875,22.9375,9.5600004196167,0.4099999964237213,-2.8499999046325684,9.239999771118164,-0.4099999964237213,-3.25,43995006
1749118395024042272,18.25,-16.25,22.6875,9.43000030517578,1.0199999809265137,-2.700000047683716,9.220000267028809,-0.5,-3.289999961853028,43995024
1749118395037059990,13.0625,-14.25,21.0625,9.239999771118164,-0.4099999964237213,-2.890000104904175,9.199999809265137,-0.5799999833106995,-3.3299999237060547,43995037
1749118395069133170,12.0,-13.125,18.125,9.130000114440918,-1.1200000047683716,-3.5799999237060547,9.18000030517578,-0.6499999761581421,-3.369999885559082,43995069
1749118395076877253,13.5,-12.25,14.8125,9.029999732971191,-1.1200000047683716,-3.400000095367432,9.15999984741211,-0.7200000286102295,-3.4100000858306885,43995076
1749118395097073763,13.625,-11.3125,11.3125,9.010000228881836,-1.2699999809265137,-3.640000104904175,9.140000343322754,-0.7699999809265137,-3.440000057220459,43995097
1749118395123057084,13.875,-11.0,9.5,8.989999771118164,-0.9900000095367432,-3.5999999046325684,9.130000114440918,-0.8199999928474426,-3.470000028610229,43995123
1749118395137083488,13.8125,-9.625,3.5625,9.100000381469728,-1.1299999952316284,-3.5999999046325684,9.109999656677246,-0.8500000238418579,-3.5,43995137
1749118395156786603,12.9375,-9.1875,2.4375,9.039999961853027,-1.1699999570846558,-3.5799999237060547,9.100000381469728,-0.8799999952316284,-3.5199999809265137,43995156
1749118395177171815,12.625,-8.375,0.0625,9.130000114440918,-1.0700000524520874,-3.5799999237060547,9.09000015258789,-0.8999999761581421,-3.549999952316284,43995177
1749118395202911868,12.4375,-7.75,-2.5,9.140000343322754,-0.959999978542328,-3.609999895095825,9.079999923706056,-0.9100000262260436,-3.569999933242798,43995202
1749118395217398150,11.5,-7.25,-2.9375,9.050000190734863,-0.9100000262260436,-3.660000085830689,9.06999969482422,-0.9200000166893004,-3.5899999141693115,43995217
1749118395236927795,10.3125,-6.4375,-4.125,9.09000015258789,-1.0299999713897705,-3.660000085830689,9.06999969482422,-0.9200000166893004,-3.5999999046325684,43995236
1749118395263350577,10.5,-5.875,-4.75,9.079999923706056,-0.75,-3.680000066757202,9.0600004196167,-0.9100000262260436,-3.619999885559082,43995263
1749118395277331226,8.875,-5.1875,-5.3125,9.119999885559082,-0.7900000214576721,-3.660000085830689,9.0600004196167,-0.9100000262260436,-3.630000114440918,43995277
1749118395297731591,7.9375,-4.5625,-5.3125,9.0600004196167,-0.9100000262260436,-3.660000085830689,9.050000190734863,-0.8999999761581421,-3.650000095367432,43995297
1749118395323239029,7.875,-4.0625,-5.625,9.079999923706056,-0.7400000095367432,-3.609999895095825,9.050000190734863,-0.8999999761581421,-3.660000085830689,43995323
1749118395339140099,5.5,-3.5625,-5.5,9.100000381469728,-0.8299999833106995,-3.569999933242798,9.050000190734863,-0.8899999856948853,-3.670000076293945,43995339
1749118395362944109,4.9375,-3.625,-5.1875,9.09000015258789,-0.800000011920929,-3.640000104904175,9.039999961853027,-0.8700000047683716,-3.670000076293945,43995362
1749118395402989989,3.9375,-3.375,-4.625,9.130000114440918,-0.7200000286102295,-3.660000085830689,9.039999961853027,-0.8600000143051147,-3.680000066757202,43995402
1749118395427043004,2.6875,-2.6875,-4.5625,9.050000190734863,-0.699999988079071,-3.670000076293945,9.039999961853027,-0.8500000238418579,-3.690000057220459,43995427
1749118395453005482,0.9375,-2.1875,-4.1875,9.050000190734863,-0.7400000095367432,-3.640000104904175,9.039999961853027,-0.8399999737739563,-3.700000047683716,43995453
1749118395478092354,-1.0,-2.0625,-3.1875,9.119999885559082,-0.550000011920929,-3.609999895095825,9.039999961853027,-0.8299999833106995,-3.700000047683716,43995478
1749118395486872468,-3.75,-1.4375,-2.25,9.100000381469728,-0.7699999809265137,-3.670000076293945,9.029999732971191,-0.8199999928474426,-3.7100000381469727,43995486
1749118395496427965,-5.0625,-0.9375,-1.375,9.06999969482422,-0.6600000262260437,-3.690000057220459,9.029999732971191,-0.800000011920929,-3.7100000381469727,43995496
1749118395506940027,-7.1875,-0.4375,-0.8125,9.119999885559082,-0.7200000286102295,-3.640000104904175,9.029999732971191,-0.7900000214576721,-3.7200000286102295,43995506
1749118395526099344,-8.5,0.3125,-0.4375,9.06999969482422,-0.6399999856948853,-3.740000009536743,9.029999732971191,-0.7799999713897705,-3.7200000286102295,43995526
1749118395540680416,-11.8125,1.0,-0.0625,9.100000381469728,-0.6600000262260437,-3.650000095367432,9.029999732971191,-0.7699999809265137,-3.7200000286102295,43995540
1749118395558092437,-12.9375,1.5625,-0.1875,9.039999961853027,-0.7300000190734863,-3.7300000190734863,9.039999961853027,-0.75,-3.7200000286102295,43995558
1749118395589078980,-12.75,1.9375,0.3125,9.039999961853027,-0.6000000238418579,-3.650000095367432,9.039999961853027,-0.7300000190734863,-3.7100000381469727,43995589
1749118395608148070,-10.6875,1.625,0.0,9.06999969482422,-0.7300000190734863,-3.5799999237060547,9.039999961853027,-0.7200000286102295,-3.7100000381469727,43995608
1749118395616872189,-8.75,1.25,-0.1875,9.06999969482422,-0.7099999785423279,-3.700000047683716,9.039999961853027,-0.7099999785423279,-3.7100000381469727,43995616
1749118395641035612,-8.5,1.25,-0.5,9.079999923706056,-0.5400000214576721,-3.660000085830689,9.039999961853027,-0.699999988079071,-3.7100000381469727,43995641
1749118395665325487,-8.875,1.375,-1.125,9.0600004196167,-0.5400000214576721,-3.640000104904175,9.050000190734863,-0.6800000071525574,-3.7100000381469727,43995665
1749118395679270584,-9.875,1.375,-1.8125,9.0600004196167,-0.550000011920929,-3.640000104904175,9.050000190734863,-0.6600000262260437,-3.700000047683716,43995679
1749118395702388003,-10.8125,1.5625,-2.25,9.109999656677246,-0.6399999856948853,-3.670000076293945,9.050000190734863,-0.6399999856948853,-3.700000047683716,43995702
1749118395723240349,-12.0,1.9375,-2.3125,9.09000015258789,-0.6399999856948853,-3.700000047683716,9.050000190734863,-0.6200000047683716,-3.700000047683716,43995723
1749118395751728289,-13.5625,2.4375,-2.5625,9.119999885559082,-0.6200000047683716,-3.650000095367432,9.0600004196167,-0.6000000238418579,-3.690000057220459,43995751
1749118395772118821,-13.5625,2.9375,-3.1875,9.06999969482422,-0.5199999809265137,-3.660000085830689,9.0600004196167,-0.5699999928474426,-3.690000057220459,43995772
1749118395777819979,-14.3125,3.3125,-3.75,9.100000381469728,-0.3899999856948852,-3.630000114440918,9.06999969482422,-0.5400000214576721,-3.680000066757202,43995777
1749118395797976982,-16.125,4.125,-4.5,9.140000343322754,-0.4600000083446502,-3.569999933242798,9.06999969482422,-0.5099999904632568,-3.670000076293945,43995797
1749118395823950036,-15.75,4.1875,-5.1875,9.18000030517578,-0.4699999988079071,-3.609999895095825,9.079999923706056,-0.4699999988079071,-3.660000085830689,43995823
1749118395845021798,-15.0,4.375,-5.25,9.130000114440918,-0.3700000047683716,-3.569999933242798,9.09000015258789,-0.4399999976158142,-3.650000095367432,43995845
1749118395869076987,-15.3125,4.875,-5.6875,9.109999656677246,-0.3700000047683716,-3.559999942779541,9.09000015258789,-0.4000000059604645,-3.630000114440918,43995869
1749118395877837136,-14.3125,4.6875,-6.125,9.140000343322754,-0.2899999916553497,-3.539999961853028,9.100000381469728,-0.3600000143051147,-3.619999885559082,43995877
1749118395894908956,-13.6875,5.0625,-6.75,9.18000030517578,-0.2599999904632568,-3.4800000190734863,9.109999656677246,-0.3300000131130218,-3.609999895095825,43995894
1749118395917947461,-12.9375,4.9375,-7.0625,9.119999885559082,-0.2899999916553497,-3.5199999809265137,9.109999656677246,-0.2899999916553497,-3.5899999141693115,43995917
1749118395938665685,-10.5,4.5625,-7.875,9.199999809265137,-0.2199999988079071,-3.4800000190734863,9.119999885559082,-0.25,-3.5799999237060547,43995938
1749118395958144917,-9.5,4.9375,-8.6875,9.130000114440918,-0.0799999982118606,-3.619999885559082,9.130000114440918,-0.209999993443489,-3.559999942779541,43995958
1749118395979799125,-10.8125,5.4375,-9.1875,9.15999984741211,-0.3199999928474426,-3.5299999713897705,9.130000114440918,-0.1700000017881393,-3.549999952316284,43995979
1749118396005182976,-8.6875,5.25,-10.625,9.18000030517578,-0.1500000059604644,-3.5,9.140000343322754,-0.1299999952316284,-3.5299999713897705,43996005
1749118396021014813,-8.0625,5.5625,-11.75,9.18000030517578,-0.3700000047683716,-3.509999990463257,9.149999618530272,-0.0900000035762786,-3.5199999809265137,43996021
1749118396044153103,-6.375,5.0,-12.625,9.130000114440918,-0.1599999964237213,-3.450000047683716,9.149999618530272,-0.0399999991059303,-3.5,43996044
1749118396058131385,-4.8125,5.125,-14.5625,9.119999885559082,-0.2399999946355819,-3.4100000858306885,9.15999984741211,0.0,-3.4800000190734863,43996058
1749118396081976852,-4.0,4.9375,-16.25,9.149999618530272,-0.0700000002980232,-3.430000066757202,9.170000076293944,0.0399999991059303,-3.470000028610229,43996081
1749118396097086340,-4.1875,4.875,-17.75,9.220000267028809,0.0299999993294477,-3.3399999141693115,9.170000076293944,0.1000000014901161,-3.450000047683716,43996097
1749118396116050920,-4.4375,5.1875,-19.5,9.149999618530272,-0.0299999993294477,-3.440000057220459,9.18000030517578,0.1599999964237213,-3.430000066757202,43996116
1749118396153180495,-4.9375,5.75,-21.625,9.18000030517578,-0.0599999986588954,-3.4800000190734863,9.18000030517578,0.2300000041723251,-3.4200000762939453,43996153
1749118396181123509,-4.5,6.5,-24.4375,9.170000076293944,0.0099999997764825,-3.4600000381469727,9.1899995803833,0.3000000119209289,-3.400000095367432,43996181
1749118396203074708,-3.0,7.375,-28.6875,9.170000076293944,-0.0599999986588954,-3.400000095367432,9.1899995803833,0.3799999952316284,-3.380000114440918,43996203
1749118396222813804,0.5,7.375,-32.5,9.289999961853027,0.3000000119209289,-3.2799999713897705,9.199999809265137,0.4799999892711639,-3.3499999046325684,43996222
1749118396224802710,2.1875,7.9375,-35.375,9.300000190734863,0.449999988079071,-3.3499999046325684,9.199999809265137,0.5799999833106995,-3.3299999237060547,43996224
1749118396239770624,2.4375,8.8125,-36.6875,9.31999969482422,0.7599999904632568,-3.240000009536743,9.199999809265137,0.6899999976158142,-3.299999952316284,43996239
1749118396258067934,1.9375,9.4375,-36.9375,9.289999961853027,0.8799999952316284,-3.25,9.199999809265137,0.800000011920929,-3.2699999809265137,43996258
1749118396276946138,0.5625,9.8125,-35.75,9.369999885559082,1.2000000476837158,-2.940000057220459,9.199999809265137,0.9200000166893004,-3.240000009536743,43996276
1749118396297988321,-1.8125,9.5625,-34.0625,9.460000038146973,1.1699999570846558,-2.859999895095825,9.199999809265137,1.0199999809265137,-3.2100000381469727,43996297
1749118396314877366,-1.6875,9.125,-32.1875,9.40999984741211,1.350000023841858,-2.9600000381469727,9.199999809265137,1.1299999952316284,-3.180000066757202,43996314
1749118396351293974,-2.75,9.4375,-29.875,9.329999923706056,1.3899999856948853,-3.150000095367432,9.199999809265137,1.2300000190734863,-3.150000095367432,43996351
1749118396358143509,-4.125,10.125,-27.75,9.270000457763672,1.4299999475479126,-3.0999999046325684,9.199999809265137,1.3200000524520874,-3.119999885559082,43996358
1749118396377308728,-4.9375,10.6875,-26.5625,9.31999969482422,1.3799999952316284,-3.059999942779541,9.1899995803833,1.409999966621399,-3.0899999141693115,43996377
1749118396397101370,-4.75,11.375,-25.9375,9.380000114440918,1.5199999809265137,-2.859999895095825,9.1899995803833,1.4900000095367432,-3.049999952316284,43996397
1749118396418960412,-5.1875,12.625,-25.6875,9.399999618530272,1.3799999952316284,-3.0199999809265137,9.1899995803833,1.5800000429153442,-3.009999990463257,43996418
1749118396444361261,-3.8125,14.125,-26.1875,9.779999732971191,1.3200000524520874,-3.069999933242798,9.1899995803833,1.659999966621399,-2.9600000381469727,43996444
1749118396457983753,-0.5,15.875,-27.875,9.979999542236328,1.3899999856948853,-2.759999990463257,9.1899995803833,1.75,-2.9100000858306885,43996457
1749118396478147497,2.8125,16.9375,-29.1875,10.079999923706056,1.6299999952316284,-2.430000066757202,9.1899995803833,1.830000042915344,-2.859999895095825,43996478
1749118396501239342,7.5,18.3125,-31.3125,10.3100004196167,1.830000042915344,-1.7100000381469729,9.1899995803833,1.919999957084656,-2.809999942779541,43996501
1749118396519124200,19.625,25.625,-38.5625,9.079999923706056,0.2300000041723251,-4.090000152587891,9.1899995803833,2.0199999809265137,-2.75,43996519
1749118396544039131,23.875,18.125,-40.0,9.40999984741211,1.7999999523162842,-3.2699999809265137,9.170000076293944,2.119999885559082,-2.720000028610229,43996544
1749118396578052508,15.5,18.3125,-40.3125,9.369999885559082,1.850000023841858,-3.7300000190734863,9.15999984741211,2.2300000190734863,-2.6700000762939453,43996578
1749118396582141446,6.0,17.125,-41.125,9.239999771118164,1.830000042915344,-3.559999942779541,9.149999618530272,2.3499999046325684,-2.619999885559082,43996582
1749118396598950656,0.25,16.1875,-42.8125,9.34000015258789,2.0899999141693115,-3.309999942779541,9.130000114440918,2.4800000190734863,-2.569999933242798,43996598
1749118396620101926,-6.5,14.0625,-44.9375,9.520000457763672,2.2699999809265137,-2.8399999141693115,9.100000381469728,2.619999885559082,-2.5199999809265137,43996620
1749118396639814517,-10.3125,12.25,-47.125,9.710000038146973,2.2300000190734863,-2.3499999046325684,9.06999969482422,2.7699999809265137,-2.470000028610229,43996639
1749118396659455874,-12.125,11.375,-50.5625,9.729999542236328,2.0,-2.1600000858306885,9.029999732971191,2.930000066757202,-2.430000066757202,43996659
1749118396674998834,-9.6875,10.5,-57.1875,10.020000457763672,1.830000042915344,-1.9800000190734863,8.979999542236328,3.109999895095825,-2.380000114440918,43996674
1749118396700038670,-6.8125,10.0,-65.3125,10.270000457763672,1.830000042915344,-2.049999952316284,8.920000076293945,3.309999942779541,-2.3399999141693115,43996700
