timestamp_ns,wx,wy,wz,ax,ay,az,gx,gy,gz,time_ms_loc
1749119614605088587,0.1875,-1.375,0.9375,9.59000015258789,1.1699999570846558,1.6299999952316284,9.630000114440918,1.0700000524520874,1.4900000095367432,45214605
1749119614609685913,-0.6875,-0.4375,0.8125,9.670000076293944,1.2300000190734863,1.6799999475479126,9.630000114440918,1.0700000524520874,1.4900000095367432,45214609
1749119614631829217,-1.125,-0.1875,0.1875,9.649999618530272,1.2999999523162842,1.7100000381469729,9.630000114440918,1.0700000524520874,1.5,45214631
1749119614656914973,0.1875,-0.5625,0.0625,9.609999656677246,1.2799999713897705,1.6200000047683716,9.630000114440918,1.0700000524520874,1.5,45214656
1749119614670020756,1.3125,-0.9375,-0.4375,9.619999885559082,1.2200000286102295,1.649999976158142,9.630000114440918,1.0700000524520874,1.5,45214670
1749119614695973358,0.6875,-1.375,-0.875,9.619999885559082,1.2000000476837158,1.6399999856948853,9.630000114440918,1.0800000429153442,1.5,45214695
1749119614711115056,-0.375,-0.9375,-0.9375,9.5600004196167,1.190000057220459,1.690000057220459,9.619999885559082,1.0800000429153442,1.5,45214711
1749119614730098750,-0.8125,-0.8125,-0.8125,9.550000190734863,1.1100000143051147,1.649999976158142,9.619999885559082,1.090000033378601,1.5,45214730
1749119614752101508,0.1875,-0.75,-0.3125,9.5600004196167,1.1299999952316284,1.5399999618530271,9.619999885559082,1.090000033378601,1.4900000095367432,45214752
1749119614777102987,1.3125,-0.5625,0.1875,9.600000381469728,1.1699999570846558,1.4700000286102295,9.619999885559082,1.090000033378601,1.4900000095367432,45214777
1749119614790085241,1.4375,-0.875,0.3125,9.579999923706056,1.25,1.5700000524520874,9.619999885559082,1.090000033378601,1.4900000095367432,45214790
1749119614815109752,1.9375,-1.3125,0.0625,9.619999885559082,1.2599999904632568,1.600000023841858,9.619999885559082,1.090000033378601,1.4900000095367432,45214815
1749119614829201088,1.625,-0.875,0.125,9.640000343322754,1.2899999618530271,1.5700000524520874,9.619999885559082,1.100000023841858,1.4800000190734863,45214829
1749119614858219445,1.8125,-0.75,0.0625,9.600000381469728,1.2699999809265137,1.5199999809265137,9.619999885559082,1.100000023841858,1.4800000190734863,45214858
1749119614873237529,2.3125,-0.4375,0.125,9.550000190734863,1.2699999809265137,1.4900000095367432,9.619999885559082,1.100000023841858,1.4800000190734863,45214873
1749119614893083510,2.3125,-0.25,0.125,9.56999969482422,1.2400000095367432,1.600000023841858,9.619999885559082,1.1100000143051147,1.4800000190734863,45214893
1749119614912156809,2.3125,-0.5625,0.0,9.59000015258789,1.2400000095367432,1.6100000143051147,9.619999885559082,1.1100000143051147,1.4800000190734863,45214912
1749119614936847659,2.6875,-0.25,0.0,9.5600004196167,1.309999942779541,1.5199999809265137,9.619999885559082,1.1100000143051147,1.4800000190734863,45214936
1749119614950083775,2.75,0.25,-0.375,9.539999961853027,1.3200000524520874,1.559999942779541,9.619999885559082,1.1200000047683716,1.4800000190734863,45214950
1749119614968882986,2.875,0.25,-0.75,9.600000381469728,1.3300000429153442,1.590000033378601,9.619999885559082,1.1200000047683716,1.4800000190734863,45214968
1749119614991265971,2.75,0.4375,-1.1875,9.59000015258789,1.350000023841858,1.600000023841858,9.619999885559082,1.1299999952316284,1.4800000190734863,45214991
1749119615046058166,2.5,0.5625,-1.5625,9.579999923706056,1.399999976158142,1.6100000143051147,9.619999885559082,1.1399999856948853,1.4800000190734863,45215046
1749119615061197823,2.1875,0.5625,-1.4375,9.5600004196167,1.3600000143051147,1.600000023841858,9.619999885559082,1.149999976158142,1.4900000095367432,45215061
1749119615065067387,1.8125,0.3125,-1.0625,9.5600004196167,1.399999976158142,1.590000033378601,9.619999885559082,1.159999966621399,1.4900000095367432,45215065
1749119615079217843,0.375,0.5,-0.75,9.550000190734863,1.4199999570846558,1.5399999618530271,9.619999885559082,1.1699999570846558,1.4900000095367432,45215079
1749119615091187452,-0.4375,0.3125,-0.3125,9.550000190734863,1.3600000143051147,1.590000033378601,9.619999885559082,1.1699999570846558,1.4900000095367432,45215091
1749119615115038924,-0.6875,-0.125,-0.375,9.579999923706056,1.350000023841858,1.5399999618530271,9.609999656677246,1.1699999570846558,1.4900000095367432,45215115
1749119615131024331,-0.3125,-0.5,-0.3125,9.59000015258789,1.340000033378601,1.600000023841858,9.609999656677246,1.1799999475479126,1.4900000095367432,45215131
1749119615152281954,-0.375,-0.1875,-0.3125,9.56999969482422,1.3300000429153442,1.6200000047683716,9.609999656677246,1.1799999475479126,1.4900000095367432,45215152
1749119615176867115,-0.0625,0.1875,-0.25,9.59000015258789,1.3600000143051147,1.559999942779541,9.609999656677246,1.1799999475479126,1.5,45215176
1749119615190001502,0.0625,0.5,-0.4375,9.59000015258789,1.340000033378601,1.600000023841858,9.609999656677246,1.1799999475479126,1.5,45215190
1749119615218246122,0.4375,0.375,-0.125,9.56999969482422,1.3300000429153442,1.5700000524520874,9.609999656677246,1.1799999475479126,1.5,45215218
1749119615228799876,0.0,0.0625,-0.125,9.5600004196167,1.3600000143051147,1.5800000429153442,9.609999656677246,1.190000057220459,1.5,45215228
1749119615251953459,0.3125,0.0,-0.1875,9.539999961853027,1.3799999952316284,1.590000033378601,9.609999656677246,1.190000057220459,1.5,45215251
1749119615270951386,0.0,0.125,0.0625,9.539999961853027,1.440000057220459,1.659999966621399,9.609999656677246,1.190000057220459,1.5,45215270
1749119615290400682,-0.375,0.1875,-0.125,9.56999969482422,1.4199999570846558,1.659999966621399,9.609999656677246,1.2000000476837158,1.5,45215290
1749119615310114189,-0.375,0.125,0.0,9.56999969482422,1.3899999856948853,1.6299999952316284,9.609999656677246,1.2000000476837158,1.5099999904632568,45215310
1749119615334061190,-0.1875,0.1875,-0.3125,9.539999961853027,1.409999966621399,1.6100000143051147,9.609999656677246,1.2000000476837158,1.5099999904632568,45215334
1749119615351268360,-0.1875,-0.125,-0.25,9.520000457763672,1.4299999475479126,1.5499999523162842,9.609999656677246,1.2100000381469729,1.5099999904632568,45215351
1749119615377218667,-0.375,-0.375,-0.125,9.550000190734863,1.3600000143051147,1.5700000524520874,9.609999656677246,1.2100000381469729,1.5099999904632568,45215377
1749119615397225419,-0.6875,-0.5,-0.0625,9.5600004196167,1.3600000143051147,1.5700000524520874,9.609999656677246,1.2100000381469729,1.5099999904632568,45215397
1749119615411826951,-0.5,-0.125,0.125,9.539999961853027,1.350000023841858,1.600000023841858,9.609999656677246,1.2100000381469729,1.5099999904632568,45215411
1749119615434985900,-0.25,-0.0625,-0.0625,9.5600004196167,1.3200000524520874,1.590000033378601,9.609999656677246,1.2200000286102295,1.5099999904632568,45215434
1749119615461088555,0.0,-0.125,-0.125,9.56999969482422,1.309999942779541,1.5700000524520874,9.609999656677246,1.2200000286102295,1.5099999904632568,45215461
1749119615487068521,0.1875,0.25,-0.25,9.550000190734863,1.340000033378601,1.600000023841858,9.609999656677246,1.2200000286102295,1.5199999809265137,45215487
1749119615511044825,0.375,0.0,-0.1875,9.579999923706056,1.3600000143051147,1.590000033378601,9.609999656677246,1.2200000286102295,1.5199999809265137,45215511
1749119615529028515,0.8125,0.375,-0.25,9.579999923706056,1.3899999856948853,1.5800000429153442,9.600000381469728,1.2200000286102295,1.5199999809265137,45215529
1749119615536040556,0.5625,0.3125,-0.0625,9.550000190734863,1.399999976158142,1.600000023841858,9.600000381469728,1.2200000286102295,1.5199999809265137,45215536
1749119615553118781,0.3125,0.1875,0.0625,9.5600004196167,1.3600000143051147,1.590000033378601,9.600000381469728,1.2300000190734863,1.5199999809265137,45215553
1749119615578027225,-0.25,0.0,0.0625,9.56999969482422,1.3600000143051147,1.5700000524520874,9.600000381469728,1.2300000190734863,1.5199999809265137,45215578
1749119615591237440,-0.125,0.0625,0.1875,9.5600004196167,1.3600000143051147,1.649999976158142,9.600000381469728,1.2300000190734863,1.5199999809265137,45215591
1749119615610922560,-0.25,-0.0625,0.0625,9.5,1.3600000143051147,1.590000033378601,9.600000381469728,1.2300000190734863,1.5199999809265137,45215610
1749119615631949123,-0.125,-0.1875,0.0,9.579999923706056,1.3899999856948853,1.5700000524520874,9.600000381469728,1.2300000190734863,1.5199999809265137,45215631
1749119615650905441,-0.9375,-0.125,-0.25,9.550000190734863,1.350000023841858,1.600000023841858,9.600000381469728,1.2300000190734863,1.5199999809265137,45215650
1749119615669892470,-1.0,-0.3125,-0.3125,9.56999969482422,1.350000023841858,1.6200000047683716,9.600000381469728,1.2300000190734863,1.5199999809265137,45215669
1749119615689305752,-1.0625,-0.25,-0.3125,9.529999732971191,1.309999942779541,1.5700000524520874,9.600000381469728,1.2300000190734863,1.5299999713897705,45215689
1749119615710137481,-1.125,-0.3125,-0.0625,9.550000190734863,1.2899999618530271,1.559999942779541,9.600000381469728,1.2300000190734863,1.5299999713897705,45215710
1749119615736193418,-1.1875,-0.4375,0.1875,9.609999656677246,1.2799999713897705,1.600000023841858,9.600000381469728,1.2300000190734863,1.5299999713897705,45215736
1749119615755103769,-0.6875,-0.0625,0.25,9.579999923706056,1.3300000429153442,1.5800000429153442,9.600000381469728,1.2300000190734863,1.5299999713897705,45215755
1749119615775958894,-0.8125,-0.0625,0.25,9.5600004196167,1.309999942779541,1.5700000524520874,9.600000381469728,1.2300000190734863,1.5299999713897705,45215775
1749119615790951933,-0.1875,0.0,0.0625,9.539999961853027,1.3600000143051147,1.5800000429153442,9.600000381469728,1.2400000095367432,1.5299999713897705,45215790
1749119615810085476,0.0625,-0.125,-0.125,9.5600004196167,1.2999999523162842,1.590000033378601,9.600000381469728,1.2400000095367432,1.5299999713897705,45215810
1749119615831211299,0.0625,-0.125,0.0,9.579999923706056,1.3600000143051147,1.590000033378601,9.600000381469728,1.2400000095367432,1.5299999713897705,45215831
1749119615850988801,0.5,0.1875,-0.375,9.5600004196167,1.3799999952316284,1.590000033378601,9.600000381469728,1.2400000095367432,1.5299999713897705,45215850
1749119615880061700,0.5625,0.25,-0.375,9.56999969482422,1.3799999952316284,1.600000023841858,9.600000381469728,1.2400000095367432,1.5299999713897705,45215880
1749119615894052309,0.25,0.1875,-0.3125,9.550000190734863,1.3799999952316284,1.590000033378601,9.600000381469728,1.2400000095367432,1.5299999713897705,45215894
1749119615910073708,0.0,0.0625,-0.1875,9.5600004196167,1.3600000143051147,1.600000023841858,9.600000381469728,1.2400000095367432,1.5299999713897705,45215910
1749119615933134098,0.125,0.125,-0.3125,9.56999969482422,1.3600000143051147,1.6200000047683716,9.600000381469728,1.2400000095367432,1.5299999713897705,45215933
1749119615957911640,0.125,0.0625,-0.1875,9.56999969482422,1.3700000047683716,1.6200000047683716,9.600000381469728,1.25,1.5299999713897705,45215957
1749119615969916389,0.0,0.1875,-0.375,9.529999732971191,1.3700000047683716,1.600000023841858,9.600000381469728,1.25,1.5399999618530271,45215969
1749119615990675310,0.125,-0.125,0.0625,9.550000190734863,1.399999976158142,1.6200000047683716,9.600000381469728,1.25,1.5399999618530271,45215990
1749119616010334900,-0.25,0.0625,-0.1875,9.550000190734863,1.4299999475479126,1.600000023841858,9.600000381469728,1.25,1.5399999618530271,45216010
1749119616038226806,-0.125,0.0625,-0.1875,9.550000190734863,1.440000057220459,1.6200000047683716,9.600000381469728,1.25,1.5399999618530271,45216038
1749119616051911495,-0.125,-0.0625,0.0,9.510000228881836,1.3799999952316284,1.649999976158142,9.600000381469728,1.2599999904632568,1.5399999618530271,45216051
1749119616071231930,-0.8125,0.0,-0.25,9.550000190734863,1.4500000476837158,1.590000033378601,9.600000381469728,1.2599999904632568,1.5399999618530271,45216071
1749119616096042794,-0.75,-0.0625,-0.3125,9.550000190734863,1.4700000286102295,1.6399999856948853,9.600000381469728,1.2599999904632568,1.5399999618530271,45216096
1749119616120143985,-0.5625,-0.3125,-0.125,9.579999923706056,1.4299999475479126,1.5800000429153442,9.600000381469728,1.2599999904632568,1.5399999618530271,45216120
1749119616130203528,-0.5,-0.25,-0.25,9.5600004196167,1.4199999570846558,1.600000023841858,9.59000015258789,1.2599999904632568,1.5399999618530271,45216130
1749119616150990318,-0.5625,-0.0625,-0.25,9.539999961853027,1.3799999952316284,1.590000033378601,9.59000015258789,1.2699999809265137,1.5499999523162842,45216150
1749119616174951973,-0.5,-0.25,-0.0625,9.550000190734863,1.3799999952316284,1.5800000429153442,9.59000015258789,1.2699999809265137,1.5499999523162842,45216174
1749119616192038417,-0.3125,-0.25,-0.125,9.529999732971191,1.399999976158142,1.6200000047683716,9.59000015258789,1.2699999809265137,1.5499999523162842,45216192
1749119616210315081,-0.5625,-0.1875,-0.0625,9.550000190734863,1.399999976158142,1.6100000143051147,9.59000015258789,1.2699999809265137,1.5499999523162842,45216210
1749119616231036187,-0.4375,-0.0625,-0.25,9.539999961853027,1.3600000143051147,1.5800000429153442,9.59000015258789,1.2699999809265137,1.5499999523162842,45216231
1749119616253082807,0.1875,-0.0625,-0.0625,9.579999923706056,1.3200000524520874,1.5800000429153442,9.59000015258789,1.2699999809265137,1.5499999523162842,45216253
1749119616311536878,0.9375,-0.4375,-0.3125,9.59000015258789,1.3300000429153442,1.649999976158142,9.59000015258789,1.2699999809265137,1.5499999523162842,45216311
1749119616336230376,1.125,-0.3125,-0.25,9.600000381469728,1.3899999856948853,1.659999966621399,9.59000015258789,1.2699999809265137,1.5499999523162842,45216336
1749119616340071761,1.875,-0.125,0.0,9.550000190734863,1.5,1.6299999952316284,9.59000015258789,1.2799999713897705,1.5499999523162842,45216340
1749119616358826706,1.3125,-0.1875,0.25,9.539999961853027,1.5299999713897705,1.6200000047683716,9.59000015258789,1.2799999713897705,1.5499999523162842,45216358
1749119616364031284,0.0625,-0.5625,0.5625,9.479999542236328,1.5800000429153442,1.600000023841858,9.59000015258789,1.2899999618530271,1.5499999523162842,45216364
1749119616370347122,-1.0625,-0.6875,0.5625,9.5,1.5800000429153442,1.5700000524520874,9.59000015258789,1.2899999618530271,1.5499999523162842,45216370
1749119616396131277,-1.5,-0.6875,0.4375,9.539999961853027,1.5499999523162842,1.6200000047683716,9.59000015258789,1.2899999618530271,1.5499999523162842,45216396
1749119616412279951,-2.0625,-0.6875,-0.0625,9.550000190734863,1.5099999904632568,1.5700000524520874,9.59000015258789,1.2999999523162842,1.5499999523162842,45216412
1749119616436218157,-2.375,-0.6875,-0.25,9.520000457763672,1.440000057220459,1.5800000429153442,9.59000015258789,1.2999999523162842,1.5499999523162842,45216436
1749119616462155442,-2.5,-0.6875,-0.25,9.529999732971191,1.3899999856948853,1.5499999523162842,9.59000015258789,1.2999999523162842,1.5499999523162842,45216462
1749119616472107752,-2.0,-0.625,-0.25,9.5600004196167,1.3700000047683716,1.5700000524520874,9.59000015258789,1.2999999523162842,1.5499999523162842,45216472
1749119616490253138,-2.0,-0.625,-0.125,9.56999969482422,1.3600000143051147,1.5700000524520874,9.59000015258789,1.2999999523162842,1.5499999523162842,45216490
1749119616516091745,-1.1875,-0.5,0.0,9.550000190734863,1.2899999618530271,1.5800000429153442,9.59000015258789,1.2999999523162842,1.5499999523162842,45216516
1749119616535189265,-0.9375,-0.5625,-0.125,9.56999969482422,1.2699999809265137,1.600000023841858,9.59000015258789,1.2999999523162842,1.5499999523162842,45216535
1749119616552948708,-0.375,-0.375,-0.1875,9.600000381469728,1.2999999523162842,1.6200000047683716,9.59000015258789,1.2899999618530271,1.5499999523162842,45216552
1749119616578388308,0.3125,-0.125,-0.25,9.600000381469728,1.3700000047683716,1.6200000047683716,9.59000015258789,1.2899999618530271,1.5499999523162842,45216578
1749119616593078074,0.3125,-0.3125,-0.25,9.579999923706056,1.3799999952316284,1.649999976158142,9.59000015258789,1.2999999523162842,1.5499999523162842,45216593
1749119616618095633,1.125,-0.125,0.0,9.510000228881836,1.4700000286102295,1.600000023841858,9.59000015258789,1.2999999523162842,1.5499999523162842,45216618
1749119616637229583,0.875,-0.5625,0.0,9.510000228881836,1.4900000095367432,1.600000023841858,9.59000015258789,1.2999999523162842,1.5499999523162842,45216637
1749119616651064140,0.4375,-0.5,0.0,9.520000457763672,1.5199999809265137,1.5800000429153442,9.59000015258789,1.2999999523162842,1.5499999523162842,45216651
1749119616672654627,-0.75,-0.5625,-0.125,9.550000190734863,1.5499999523162842,1.6100000143051147,9.59000015258789,1.309999942779541,1.5499999523162842,45216672
1749119616699070472,-1.1875,-0.5625,-0.1875,9.539999961853027,1.5299999713897705,1.590000033378601,9.59000015258789,1.309999942779541,1.5499999523162842,45216699
1749119616710837586,-1.25,-0.625,-0.375,9.59000015258789,1.5099999904632568,1.5700000524520874,9.59000015258789,1.309999942779541,1.5499999523162842,45216710
1749119616735995881,-1.9375,-0.75,-0.5,9.550000190734863,1.4700000286102295,1.5800000429153442,9.59000015258789,1.309999942779541,1.5499999523162842,45216735
1749119616755976265,-2.25,-0.9375,-0.375,9.539999961853027,1.4700000286102295,1.5800000429153442,9.59000015258789,1.309999942779541,1.5499999523162842,45216755
1749119616771065427,-2.9375,-0.9375,0.5625,9.550000190734863,1.5199999809265137,1.559999942779541,9.59000015258789,1.3200000524520874,1.5399999618530271,45216771
1749119616790181074,-3.4375,-1.0,0.8125,9.550000190734863,1.5399999618530271,1.590000033378601,9.59000015258789,1.309999942779541,1.5399999618530271,45216790
1749119616815018249,-4.5,-1.4375,1.3125,9.59000015258789,1.5399999618530271,1.6299999952316284,9.59000015258789,1.309999942779541,1.5399999618530271,45216815
1749119616831131307,-5.0,-1.625,1.375,9.550000190734863,1.5299999713897705,1.6399999856948853,9.59000015258789,1.309999942779541,1.5399999618530271,45216831
1749119616850921895,-5.3125,-1.75,1.5625,9.550000190734863,1.5199999809265137,1.6100000143051147,9.59000015258789,1.2999999523162842,1.5399999618530271,45216850
1749119616870953697,-5.1875,-2.0,1.3125,9.5600004196167,1.440000057220459,1.6399999856948853,9.59000015258789,1.2999999523162842,1.5399999618530271,45216870
1749119616889008970,-4.6875,-2.0625,1.1875,9.59000015258789,1.399999976158142,1.659999966621399,9.59000015258789,1.2999999523162842,1.5299999713897705,45216889
1749119616915985023,-4.0625,-1.5,1.0,9.5,1.3200000524520874,1.590000033378601,9.59000015258789,1.2899999618530271,1.5299999713897705,45216915
1749119616942874047,-2.5625,-1.375,1.1875,9.510000228881836,1.309999942779541,1.5399999618530271,9.59000015258789,1.2899999618530271,1.5299999713897705,45216942
1749119616951928592,-2.0,-1.375,1.375,9.489999771118164,1.3200000524520874,1.5700000524520874,9.600000381469728,1.2799999713897705,1.5299999713897705,45216951
1749119616976128576,-0.5625,-1.5625,1.5,9.510000228881836,1.3700000047683716,1.5700000524520874,9.600000381469728,1.2799999713897705,1.5199999809265137,45216976
1749119616996170215,0.0,-1.5,1.4375,9.5,1.409999966621399,1.590000033378601,9.600000381469728,1.2699999809265137,1.5199999809265137,45216996
1749119617011145876,0.875,-1.6875,1.25,9.520000457763672,1.3799999952316284,1.6200000047683716,9.600000381469728,1.2699999809265137,1.5099999904632568,45217011
1749119617031839277,2.0,-1.6875,0.875,9.5600004196167,1.3700000047683716,1.6799999475479126,9.600000381469728,1.2699999809265137,1.5099999904632568,45217031
1749119617055995817,2.375,-1.4375,0.8125,9.550000190734863,1.3899999856948853,1.6699999570846558,9.600000381469728,1.2699999809265137,1.5,45217055
1749119617080324463,4.1875,-1.125,0.3125,9.5600004196167,1.3799999952316284,1.600000023841858,9.600000381469728,1.2699999809265137,1.5,45217080
1749119617102022689,4.4375,-1.25,0.4375,9.579999923706056,1.4199999570846558,1.600000023841858,9.600000381469728,1.2799999713897705,1.5,45217102
1749119617114173944,4.375,-1.3125,0.4375,9.619999885559082,1.4900000095367432,1.5,9.600000381469728,1.2799999713897705,1.4900000095367432,45217114
1749119617141127546,4.1875,-1.1875,0.75,9.600000381469728,1.559999942779541,1.5,9.600000381469728,1.2899999618530271,1.4800000190734863,45217141
1749119617169156431,3.875,-1.25,0.875,9.609999656677246,1.6299999952316284,1.440000057220459,9.600000381469728,1.2899999618530271,1.4800000190734863,45217169
1749119617171787086,1.625,-1.625,1.625,9.56999969482422,1.6100000143051147,1.2400000095367432,9.600000381469728,1.2899999618530271,1.4700000286102295,45217171
1749119617191094992,0.6875,-1.5625,1.875,9.56999969482422,1.5700000524520874,1.2200000286102295,9.600000381469728,1.2899999618530271,1.4700000286102295,45217191
1749119617211263084,-1.4375,-1.5,2.5,9.470000267028809,1.559999942779541,1.1299999952316284,9.609999656677246,1.2899999618530271,1.4500000476837158,45217211
1749119617238054622,-2.875,-1.375,3.3125,9.470000267028809,1.659999966621399,1.149999976158142,9.609999656677246,1.2899999618530271,1.440000057220459,45217238
1749119617265009773,-3.75,-1.5625,3.375,9.539999961853027,1.690000057220459,1.1699999570846558,9.609999656677246,1.2899999618530271,1.4299999475479126,45217265
1749119617273073151,-8.3125,-2.125,4.0,9.5,1.899999976158142,1.2899999618530271,9.609999656677246,1.2899999618530271,1.4199999570846558,45217273
1749119617300342174,-9.875,-2.3125,4.125,9.479999542236328,1.919999957084656,1.2799999713897705,9.609999656677246,1.2899999618530271,1.409999966621399,45217300
1749119617316039865,-13.25,-2.8125,4.375,9.529999732971191,1.909999966621399,1.3200000524520874,9.609999656677246,1.2899999618530271,1.399999976158142,45217316
1749119617336197566,-19.25,-3.375,4.4375,9.619999885559082,1.8600000143051147,1.3600000143051147,9.609999656677246,1.2899999618530271,1.399999976158142,45217336
1749119617349971366,-21.6875,-3.5,4.375,9.56999969482422,1.809999942779541,1.3899999856948853,9.609999656677246,1.2799999713897705,1.399999976158142,45217349
1749119617374889324,-27.8125,-4.4375,4.5625,9.4399995803833,1.690000057220459,1.409999966621399,9.619999885559082,1.2699999809265137,1.3899999856948853,45217374
1749119617390053647,-29.25,-5.0,4.6875,9.40999984741211,1.6299999952316284,1.409999966621399,9.619999885559082,1.2599999904632568,1.3899999856948853,45217390
1749119617413426777,-32.375,-5.625,5.3125,9.550000190734863,1.4500000476837158,1.4900000095367432,9.619999885559082,1.2200000286102295,1.3899999856948853,45217413
1749119617433549371,-35.9375,-6.3125,5.9375,9.600000381469728,1.2799999713897705,1.7100000381469729,9.630000114440918,1.1799999475479126,1.3799999952316284,45217433
1749119617451262471,-36.8125,-7.125,6.1875,9.670000076293944,1.1799999475479126,1.809999942779541,9.630000114440918,1.159999966621399,1.3799999952316284,45217451
1749119617474992124,-36.875,-9.6875,6.125,9.529999732971191,0.8199999928474426,1.940000057220459,9.640000343322754,1.1100000143051147,1.3600000143051147,45217474
1749119617500281763,-35.0,-9.9375,6.0,9.550000190734863,0.6499999761581421,1.659999966621399,9.649999618530272,1.090000033378601,1.350000023841858,45217500
1749119617515788326,-30.375,-7.9375,6.375,9.699999809265137,0.5799999833106995,1.440000057220459,9.65999984741211,1.0399999618530271,1.3200000524520874,45217515
1749119617536448399,-32.125,-7.8125,5.75,9.640000343322754,0.5600000023841858,1.4900000095367432,9.65999984741211,1.0,1.309999942779541,45217536
1749119617604185645,-30.9375,-7.8125,5.5,9.65999984741211,0.5199999809265137,1.4600000381469729,9.65999984741211,0.9900000095367432,1.2999999523162842,45217604
1749119617630105994,-23.1875,-8.8125,4.8125,9.880000114440918,0.3899999856948852,1.4600000381469729,9.670000076293944,0.9200000166893004,1.2799999713897705,45217630
1749119617639869972,-20.6875,-8.5,4.0625,9.789999961853027,0.4799999892711639,1.4800000190734863,9.68000030517578,0.8999999761581421,1.2699999809265137,45217639
1749119617657221525,-18.3125,-7.5625,2.4375,9.75,0.1000000014901161,1.2300000190734863,9.68000030517578,0.8600000143051147,1.25,45217657
1749119617670105981,-12.0625,-4.5,1.0,9.729999542236328,-0.0099999997764825,1.149999976158142,9.6899995803833,0.8500000238418579,1.2300000190734863,45217670
1749119617671807514,-9.0,-4.0,0.8125,9.789999961853027,-0.0199999995529651,1.0399999618530271,9.6899995803833,0.8399999737739563,1.2300000190734863,45217671
1749119617676833992,-1.625,-2.4375,0.6875,9.68000030517578,0.3799999952316284,1.0,9.6899995803833,0.8100000023841858,1.2100000381469729,45217676
1749119617694137274,0.3125,-2.4375,1.1875,9.710000038146973,0.5699999928474426,1.0499999523162842,9.6899995803833,0.8100000023841858,1.2000000476837158,45217694
1749119617717342464,1.75,-2.9375,2.375,9.649999618530272,0.8600000143051147,0.9800000190734864,9.699999809265137,0.800000011920929,1.190000057220459,45217717
1749119617734970628,-0.4375,-2.4375,2.3125,9.640000343322754,0.7799999713897705,1.100000023841858,9.699999809265137,0.7900000214576721,1.1799999475479126,45217734
1749119617754803623,0.0,-2.9375,2.25,9.6899995803833,0.6399999856948853,1.1299999952316284,9.699999809265137,0.7900000214576721,1.1699999570846558,45217754
1749119617774887479,0.5,-3.1875,2.6875,9.649999618530272,0.6700000166893005,1.190000057220459,9.699999809265137,0.7699999809265137,1.159999966621399,45217774
1749119617810847778,0.0,-2.625,2.5,9.59000015258789,0.6499999761581421,1.2300000190734863,9.699999809265137,0.7699999809265137,1.149999976158142,45217810
1749119617818779697,0.9375,-1.9375,2.0,9.6899995803833,0.75,1.2699999809265137,9.699999809265137,0.7599999904632568,1.149999976158142,45217818
1749119617831847462,2.25,-2.1875,1.75,9.760000228881836,0.9800000190734864,1.4299999475479126,9.699999809265137,0.7599999904632568,1.1399999856948853,45217831
1749119617850185656,1.75,-2.8125,1.625,9.699999809265137,1.0,1.440000057220459,9.710000038146973,0.7599999904632568,1.1399999856948853,45217850
1749119617872023150,-0.625,-3.25,2.1875,9.600000381469728,1.2000000476837158,1.5700000524520874,9.699999809265137,0.7599999904632568,1.1399999856948853,45217872
1749119617890985600,-1.125,-3.5625,2.1875,9.640000343322754,1.2699999809265137,1.5499999523162842,9.699999809265137,0.7699999809265137,1.1399999856948853,45217890
1749119617917168718,-3.5,-5.3125,2.0,9.890000343322754,1.25,1.2699999809265137,9.710000038146973,0.75,1.1200000047683716,45217917
1749119617936155549,-5.0,-5.625,0.4375,9.720000267028809,0.7599999904632568,1.1100000143051147,9.710000038146973,0.75,1.100000023841858,45217936
1749119617959951690,-5.4375,-5.75,-0.1875,9.640000343322754,0.6299999952316284,1.100000023841858,9.710000038146973,0.75,1.090000033378601,45217959
1749119617977062712,-4.6875,-4.625,-1.125,9.56999969482422,0.5799999833106995,1.0099999904632568,9.710000038146973,0.75,1.0700000524520874,45217977
1749119617989033589,-4.3125,-4.0,-0.875,9.56999969482422,0.5899999737739563,0.9700000286102296,9.710000038146973,0.75,1.059999942779541,45217989
1749119618016360708,-4.6875,-3.9375,-0.5625,9.579999923706056,0.5799999833106995,0.959999978542328,9.720000267028809,0.75,1.0499999523162842,45218016
1749119618041302107,-4.9375,-3.9375,0.125,9.739999771118164,0.6200000047683716,1.059999942779541,9.720000267028809,0.75,1.0399999618530271,45218041
1749119618052175780,-3.875,-4.125,0.5,9.770000457763672,0.6000000238418579,1.0399999618530271,9.720000267028809,0.75,1.0299999713897705,45218052
1749119618078199285,0.5,-4.875,1.4375,9.760000228881836,0.6000000238418579,1.0399999618530271,9.720000267028809,0.7400000095367432,1.0099999904632568,45218078
1749119618090779344,1.1875,-5.3125,1.625,9.789999961853027,0.6499999761581421,1.0499999523162842,9.720000267028809,0.7300000190734863,1.0,45218090
1749119618111541593,1.0,-5.5,2.0,9.81999969482422,0.8399999737739563,1.1699999570846558,9.720000267028809,0.7300000190734863,0.9800000190734864,45218111
1749119618134034964,-2.0,-5.8125,1.75,9.770000457763672,0.9399999976158142,1.0800000429153442,9.729999542236328,0.7200000286102295,0.949999988079071,45218134
1749119618155026686,-3.3125,-5.75,1.625,9.710000038146973,0.9100000262260436,1.0099999904632568,9.729999542236328,0.7099999785423279,0.9399999976158142,45218155
1749119618175786337,-5.5625,-6.125,1.5,9.68000030517578,0.7200000286102295,0.9200000166893004,9.729999542236328,0.7099999785423279,0.9200000166893004,45218175
1749119618201200686,-6.8125,-5.75,1.3125,9.68000030517578,0.6800000071525574,0.8799999952316284,9.729999542236328,0.699999988079071,0.9100000262260436,45218201
1749119618209846674,-7.6875,-5.1875,1.8125,9.670000076293944,0.6000000238418579,0.7799999713897705,9.739999771118164,0.699999988079071,0.8899999856948853,45218209
1749119618235434449,-7.1875,-4.5625,1.8125,9.739999771118164,0.6600000262260437,0.7200000286102295,9.739999771118164,0.6800000071525574,0.8700000047683716,45218235
1749119618260357196,-6.9375,-4.6875,1.875,9.779999732971191,0.6100000143051147,0.699999988079071,9.739999771118164,0.6800000071525574,0.8600000143051147,45218260
1749119618275243356,-6.125,-4.4375,1.5,9.770000457763672,0.5699999928474426,0.7300000190734863,9.739999771118164,0.6700000166893005,0.8399999737739563,45218275
1749119618300159767,-5.5625,-3.8125,0.625,9.760000228881836,0.550000011920929,0.800000011920929,9.739999771118164,0.6700000166893005,0.8299999833106995,45218300
1749119618310183586,-4.0,-3.4375,0.75,9.760000228881836,0.5400000214576721,0.8799999952316284,9.739999771118164,0.6600000262260437,0.8199999928474426,45218310
1749119618335352466,-2.1875,-3.1875,1.1875,9.850000381469728,0.6399999856948853,1.0299999713897705,9.75,0.6499999761581421,0.8100000023841858,45218335
1749119618353799466,-2.5625,-3.0625,1.5625,9.800000190734863,0.6399999856948853,1.0299999713897705,9.75,0.6499999761581421,0.8100000023841858,45218353
1749119618375160499,-2.0,-3.875,1.875,9.609999656677246,0.6499999761581421,0.8399999737739563,9.75,0.6399999856948853,0.7900000214576721,45218375
1749119618397148990,0.125,-4.625,2.875,9.649999618530272,0.6700000166893005,0.7599999904632568,9.75,0.6299999952316284,0.7799999713897705,45218397
1749119618413220441,-0.5,-4.3125,3.0,9.710000038146973,0.800000011920929,0.7200000286102295,9.75,0.6299999952316284,0.7699999809265137,45218413
1749119618438087425,-2.6875,-4.5,2.5,9.770000457763672,0.8500000238418579,0.7599999904632568,9.75,0.6100000143051147,0.75,45218438
1749119618449091879,-4.25,-4.8125,1.5,9.859999656677246,0.7599999904632568,0.6399999856948853,9.75,0.6100000143051147,0.7400000095367432,45218449
1749119618478002531,-5.0,-3.875,-0.125,9.770000457763672,0.3199999928474426,0.4699999988079071,9.760000228881836,0.6100000143051147,0.7200000286102295,45218478
1749119618499774745,-3.6875,-2.5625,-1.5,9.770000457763672,0.2199999988079071,0.5400000214576721,9.760000228881836,0.6100000143051147,0.7200000286102295,45218499
1749119618516011126,-1.375,-1.5625,-2.1875,9.81999969482422,0.2300000041723251,0.5799999833106995,9.760000228881836,0.6200000047683716,0.7099999785423279,45218516
1749119618539022336,1.6875,-0.5625,-2.625,9.880000114440918,0.270000010728836,0.5899999737739563,9.760000228881836,0.6299999952316284,0.7099999785423279,45218539
1749119618560088001,3.1875,0.0,-2.125,9.770000457763672,0.3899999856948852,0.6499999761581421,9.760000228881836,0.6299999952316284,0.7099999785423279,45218560
1749119618579783460,4.1875,0.0,-1.5,9.68000030517578,0.4300000071525574,0.5299999713897705,9.760000228881836,0.6299999952316284,0.699999988079071,45218579
1749119618590003332,6.1875,-0.25,-0.6875,9.75,0.6299999952316284,0.5400000214576721,9.760000228881836,0.6399999856948853,0.699999988079071,45218590
1749119618614948800,6.125,-0.1875,0.0625,9.760000228881836,0.7799999713897705,0.5899999737739563,9.760000228881836,0.6399999856948853,0.699999988079071,45218614
1749119618640102078,3.5,-0.25,0.0625,9.829999923706056,0.9800000190734864,0.7200000286102295,9.760000228881836,0.6399999856948853,0.699999988079071,45218640
1749119618653975074,0.625,-0.375,0.0,9.789999961853027,0.9900000095367432,0.7799999713897705,9.760000228881836,0.6399999856948853,0.699999988079071,45218653
1749119618680765798,-0.75,-0.625,0.0625,9.649999618530272,1.0299999713897705,0.75,9.760000228881836,0.6399999856948853,0.699999988079071,45218680
1749119618699013873,-2.1875,-1.0625,-0.0625,9.5600004196167,0.9800000190734864,0.7699999809265137,9.75,0.6499999761581421,0.699999988079071,45218699
1749119618709410869,-4.3125,-1.8125,-0.375,9.670000076293944,0.9100000262260436,0.7699999809265137,9.75,0.6499999761581421,0.6899999976158142,45218709
1749119618733152591,-5.9375,-2.0625,-0.5,9.770000457763672,0.75,0.7400000095367432,9.75,0.6499999761581421,0.6899999976158142,45218733
1749119618754824527,-5.9375,-1.8125,-0.4375,9.760000228881836,0.8799999952316284,0.800000011920929,9.760000228881836,0.6499999761581421,0.6800000071525574,45218754
1749119618770193265,-6.375,-1.625,0.125,9.699999809265137,1.0099999904632568,0.75,9.75,0.6600000262260437,0.6800000071525574,45218770
1749119618796935882,-8.625,-1.75,0.3125,9.65999984741211,1.0299999713897705,0.6800000071525574,9.75,0.6600000262260437,0.6800000071525574,45218796
1749119618810100760,-10.0,-2.25,1.375,9.640000343322754,1.0299999713897705,0.6800000071525574,9.760000228881836,0.6600000262260437,0.6800000071525574,45218810
1749119618871225170,-10.6875,-3.1875,2.125,9.75,1.1100000143051147,0.6899999976158142,9.760000228881836,0.6600000262260437,0.6700000166893005,45218871
1749119618897055263,-12.625,-3.5,2.25,9.760000228881836,1.190000057220459,0.6200000047683716,9.760000228881836,0.6600000262260437,0.6600000262260437,45218897
1749119618921390499,-15.0625,-3.25,0.8125,9.729999542236328,0.8700000047683716,0.6200000047683716,9.760000228881836,0.6700000166893005,0.6499999761581421,45218921
1749119618925969908,-14.4375,-2.5,-0.5,9.739999771118164,0.4900000095367431,0.6100000143051147,9.760000228881836,0.6600000262260437,0.6499999761581421,45218925
1749119618940268395,-11.375,-1.0625,-0.9375,9.859999656677246,0.3799999952316284,0.5799999833106995,9.760000228881836,0.6600000262260437,0.6399999856948853,45218940
1749119618955081940,-7.75,0.3125,-1.0625,9.779999732971191,0.5899999737739563,0.6000000238418579,9.760000228881836,0.6700000166893005,0.6499999761581421,45218955
1749119618964270856,-4.8125,0.125,-0.375,9.81999969482422,0.6200000047683716,0.5199999809265137,9.760000228881836,0.6600000262260437,0.6499999761581421,45218964
1749119618981081265,-3.375,-0.1875,-0.1875,9.720000267028809,1.0199999809265137,0.75,9.760000228881836,0.6600000262260437,0.6499999761581421,45218981
1749119619005378447,-5.5625,-0.4375,-0.0625,9.65999984741211,1.1699999570846558,0.7599999904632568,9.760000228881836,0.6600000262260437,0.6499999761581421,45219005
1749119619032233692,-9.9375,-0.8125,-0.25,9.739999771118164,0.8299999833106995,0.7300000190734863,9.760000228881836,0.6600000262260437,0.6499999761581421,45219032
1749119619064853048,-11.375,-0.75,0.3125,9.6899995803833,0.7400000095367432,0.7099999785423279,9.760000228881836,0.6600000262260437,0.6499999761581421,45219064
1749119619089978841,-10.0625,-1.125,0.1875,9.739999771118164,0.6200000047683716,0.6299999952316284,9.760000228881836,0.6600000262260437,0.6499999761581421,45219089
1749119619101137227,-11.3125,-1.1875,-0.625,9.789999961853027,0.6000000238418579,0.5899999737739563,9.760000228881836,0.6600000262260437,0.6399999856948853,45219101
1749119619109211637,-11.9375,-1.125,-1.25,9.710000038146973,0.4900000095367431,0.7599999904632568,9.760000228881836,0.6600000262260437,0.6399999856948853,45219109
1749119619126013500,-11.375,-0.5625,-1.375,9.75,0.4000000059604645,0.7900000214576721,9.760000228881836,0.6600000262260437,0.6499999761581421,45219126
1749119619131956644,-9.3125,0.125,-0.875,9.739999771118164,0.449999988079071,0.6899999976158142,9.760000228881836,0.6499999761581421,0.6499999761581421,45219131
1749119619151950073,-8.4375,-0.1875,0.125,9.720000267028809,0.4900000095367431,0.699999988079071,9.760000228881836,0.6499999761581421,0.6499999761581421,45219151
1749119619178186339,-7.3125,-1.25,1.125,9.770000457763672,0.6200000047683716,0.7099999785423279,9.760000228881836,0.6399999856948853,0.6499999761581421,45219178
1749119619196915025,-6.4375,-1.9375,1.9375,9.6899995803833,0.6899999976158142,0.7200000286102295,9.760000228881836,0.6399999856948853,0.6499999761581421,45219196
1749119619208837202,-7.6875,-2.4375,2.375,9.770000457763672,0.5600000023841858,0.699999988079071,9.760000228881836,0.6299999952316284,0.6399999856948853,45219208
1749119619235018029,-8.1875,-2.9375,2.3125,9.81999969482422,0.4399999976158142,0.699999988079071,9.760000228881836,0.6200000047683716,0.6299999952316284,45219235
1749119619252005121,-4.375,-2.9375,2.1875,9.859999656677246,0.1899999976158142,0.6100000143051147,9.760000228881836,0.6100000143051147,0.6299999952316284,45219252
1749119619276919094,-1.0625,-2.0625,1.5625,9.81999969482422,0.0700000002980232,0.6499999761581421,9.760000228881836,0.6000000238418579,0.6200000047683716,45219276
1749119619296014644,4.9375,-0.375,0.3125,9.770000457763672,-0.1199999973177909,0.5799999833106995,9.760000228881836,0.6000000238418579,0.6200000047683716,45219296
1749119619317026079,10.0,1.625,0.1875,9.649999618530272,0.1599999964237213,0.6200000047683716,9.760000228881836,0.6000000238418579,0.6200000047683716,45219317
1749119619334007802,14.25,2.0,0.5,9.779999732971191,0.4699999988079071,0.6899999976158142,9.760000228881836,0.6100000143051147,0.6200000047683716,45219334
1749119619356160162,14.4375,2.125,1.125,9.989999771118164,0.550000011920929,0.5299999713897705,9.760000228881836,0.6100000143051147,0.6200000047683716,45219356
1749119619370184059,13.25,1.6875,1.25,9.90999984741211,0.4699999988079071,0.5600000023841858,9.760000228881836,0.6000000238418579,0.6299999952316284,45219370
1749119619395059825,17.0625,0.5,2.0,9.65999984741211,0.5699999928474426,0.3700000047683716,9.760000228881836,0.6000000238418579,0.6299999952316284,45219395
1749119619420892774,20.0,-0.5625,3.5625,9.65999984741211,0.75,0.3600000143051147,9.760000228881836,0.6000000238418579,0.6200000047683716,45219420
1749119619435078561,15.5625,0.375,4.1875,9.710000038146973,1.2000000476837158,0.6899999976158142,9.760000228881836,0.5899999737739563,0.6200000047683716,45219435
1749119619455085910,10.1875,1.0625,4.125,9.649999618530272,1.2699999809265137,0.8600000143051147,9.760000228881836,0.5699999928474426,0.6200000047683716,45219455
1749119619475787883,5.6875,0.8125,3.9375,9.539999961853027,1.2999999523162842,0.8399999737739563,9.770000457763672,0.5600000023841858,0.6200000047683716,45219475
1749119619496870799,1.875,-0.6875,4.125,9.720000267028809,1.1799999475479126,1.059999942779541,9.770000457763672,0.550000011920929,0.6200000047683716,45219496
1749119619510102319,1.25,-1.875,4.0,9.829999923706056,0.75,0.8600000143051147,9.770000457763672,0.550000011920929,0.6200000047683716,45219510
1749119619537713889,4.1875,-1.625,2.0625,9.829999923706056,0.5699999928474426,0.5699999928474426,9.770000457763672,0.5400000214576721,0.6100000143051147,45219537
1749119619562881391,4.0,-0.9375,0.6875,9.850000381469728,0.5199999809265137,0.6200000047683716,9.770000457763672,0.5400000214576721,0.6100000143051147,45219562
1749119619569298025,7.0625,-1.3125,0.875,9.75,0.7900000214576721,0.7099999785423279,9.770000457763672,0.5400000214576721,0.6000000238418579,45219569
1749119619594972839,7.5625,-1.375,1.75,9.59000015258789,1.059999942779541,0.6899999976158142,9.770000457763672,0.5400000214576721,0.6000000238418579,45219594
1749119619609988099,3.0,-0.9375,2.25,9.65999984741211,0.9100000262260436,0.5600000023841858,9.770000457763672,0.5299999713897705,0.5899999737739563,45219609
1749119619632288029,-0.6875,-1.0,3.1875,9.81999969482422,0.5699999928474426,0.4699999988079071,9.770000457763672,0.5199999809265137,0.5899999737739563,45219632
1749119619656926498,2.875,-1.375,3.0625,9.9399995803833,0.2399999946355819,0.6200000047683716,9.770000457763672,0.5099999904632568,0.5799999833106995,45219656
1749119619683951195,7.25,-1.0625,2.375,9.960000038146973,0.1800000071525573,0.550000011920929,9.770000457763672,0.5,0.5799999833106995,45219683
1749119619689152185,9.8125,0.25,0.875,9.880000114440918,0.3000000119209289,0.5199999809265137,9.770000457763672,0.5,0.5799999833106995,45219689
1749119619721065592,12.8125,1.5625,0.5,9.8100004196167,0.4000000059604645,0.4600000083446502,9.770000457763672,0.5,0.5799999833106995,45219721
1749119619729741276,15.125,2.4375,-0.5,9.710000038146973,0.5799999833106995,0.4000000059604645,9.770000457763672,0.5,0.5799999833106995,45219729
1749119619750068259,14.5625,2.25,-1.5,9.760000228881836,0.550000011920929,0.4900000095367431,9.770000457763672,0.5099999904632568,0.5899999737739563,45219750
1749119619774113982,13.6875,1.6875,-1.75,9.850000381469728,0.449999988079071,0.6100000143051147,9.770000457763672,0.5199999809265137,0.5899999737739563,45219774
1749119619790146685,15.8125,2.5625,-1.75,9.81999969482422,0.4699999988079071,0.7699999809265137,9.770000457763672,0.5299999713897705,0.6000000238418579,45219790
1749119619814892934,18.5625,3.0,-1.5,9.779999732971191,0.5699999928474426,0.7400000095367432,9.770000457763672,0.5400000214576721,0.6000000238418579,45219814
1749119619841071981,19.4375,3.25,-1.5625,9.729999542236328,0.6200000047683716,0.7300000190734863,9.770000457763672,0.550000011920929,0.6100000143051147,45219841
1749119619849820117,19.5,3.0,-1.75,9.75,0.6200000047683716,0.6899999976158142,9.770000457763672,0.5600000023841858,0.6200000047683716,45219849
1749119619872039699,19.875,2.875,-2.1875,9.760000228881836,0.6000000238418579,0.6899999976158142,9.760000228881836,0.5699999928474426,0.6299999952316284,45219872
1749119619891281542,19.6875,2.6875,-2.125,9.789999961853027,0.6399999856948853,0.6899999976158142,9.760000228881836,0.5799999833106995,0.6299999952316284,45219891
1749119619914008122,19.9375,2.875,-2.125,9.739999771118164,0.6200000047683716,0.5699999928474426,9.760000228881836,0.5899999737739563,0.6399999856948853,45219914
1749119619930393402,19.625,3.9375,-2.625,9.720000267028809,0.6700000166893005,0.449999988079071,9.760000228881836,0.6000000238418579,0.6399999856948853,45219930
1749119619956220471,18.4375,4.0,-2.0,9.739999771118164,0.699999988079071,0.5699999928474426,9.760000228881836,0.6200000047683716,0.6499999761581421,45219956
1749119619970306071,18.75,3.5625,-1.625,9.760000228881836,0.8700000047683716,0.6100000143051147,9.760000228881836,0.6299999952316284,0.6600000262260437,45219970
1749119619995019936,18.3125,3.6875,-1.4375,9.699999809265137,0.9900000095367432,0.6399999856948853,9.760000228881836,0.6399999856948853,0.6700000166893005,45219995
1749119620021381998,15.6875,3.75,-1.8125,9.770000457763672,0.9399999976158142,0.6200000047683716,9.760000228881836,0.6499999761581421,0.6700000166893005,45220021
1749119620044642594,12.375,3.6875,-1.625,9.850000381469728,1.0800000429153442,0.800000011920929,9.75,0.6700000166893005,0.6800000071525574,45220044
1749119620049819685,12.8125,3.5625,-1.5625,9.789999961853027,0.959999978542328,0.6299999952316284,9.75,0.6800000071525574,0.6899999976158142,45220049
1749119620074137308,12.875,4.125,-2.3125,9.550000190734863,0.9399999976158142,0.3400000035762787,9.75,0.699999988079071,0.699999988079071,45220074
1749119620091263095,10.25,4.125,-2.1875,9.5,1.059999942779541,0.4399999976158142,9.75,0.7099999785423279,0.7099999785423279,45220091
1749119620165089930,7.3125,2.9375,-0.75,9.65999984741211,1.5700000524520874,0.8399999737739563,9.75,0.7099999785423279,0.7200000286102295,45220165
1749119620191219259,4.0,1.375,0.5625,9.640000343322754,1.5700000524520874,0.8700000047683716,9.75,0.7200000286102295,0.7200000286102295,45220191
1749119620200102732,0.0,0.9375,1.5,9.539999961853027,1.4500000476837158,0.7599999904632568,9.75,0.7099999785423279,0.7300000190734863,45220200
1749119620210141473,-5.5,0.5,2.5625,9.579999923706056,1.2400000095367432,0.7699999809265137,9.75,0.7099999785423279,0.7300000190734863,45220210
1749119620224168878,-9.1875,0.0,2.375,9.789999961853027,0.8899999856948853,0.9300000071525574,9.75,0.699999988079071,0.7300000190734863,45220224
1749119620231312053,-9.25,0.25,1.25,9.920000076293944,0.6800000071525574,1.0199999809265137,9.75,0.699999988079071,0.7300000190734863,45220231
1749119620242292643,-7.375,0.9375,0.5,9.8100004196167,0.5400000214576721,1.149999976158142,9.75,0.6899999976158142,0.7400000095367432,45220242
1749119620249126509,-5.8125,1.0,-0.3125,9.729999542236328,0.4099999964237213,1.1100000143051147,9.75,0.6899999976158142,0.7400000095367432,45220249
1749119620272001899,-3.625,0.9375,-0.5625,9.75,0.4699999988079071,0.8700000047683716,9.75,0.6899999976158142,0.75,45220272
1749119620292042053,-2.125,1.5,-0.9375,9.739999771118164,0.4699999988079071,0.7099999785423279,9.75,0.6899999976158142,0.75,45220292
1749119620317688312,-2.625,1.4375,-0.5625,9.68000030517578,0.6000000238418579,0.6899999976158142,9.75,0.6899999976158142,0.7599999904632568,45220317
1749119620329402519,-1.9375,0.5625,0.3125,9.710000038146973,0.6200000047683716,0.6600000262260437,9.75,0.6899999976158142,0.7599999904632568,45220329
1749119620353841246,-3.25,-0.25,1.4375,9.699999809265137,0.6800000071525574,0.7799999713897705,9.75,0.6899999976158142,0.7599999904632568,45220353
1749119620380791791,-2.75,-0.25,2.375,9.760000228881836,0.6299999952316284,0.699999988079071,9.75,0.6800000071525574,0.7599999904632568,45220380
1749119620399845419,-3.0625,0.125,1.9375,9.720000267028809,0.7300000190734863,0.6800000071525574,9.75,0.6700000166893005,0.7599999904632568,45220399
1749119620409909926,-1.375,0.3125,1.9375,9.779999732971191,0.5799999833106995,0.5899999737739563,9.75,0.6600000262260437,0.7599999904632568,45220409
1749119620436266410,0.125,0.0625,1.6875,9.90999984741211,0.6000000238418579,0.8399999737739563,9.75,0.6600000262260437,0.7599999904632568,45220436
1749119620449091150,1.1875,0.3125,0.8125,9.81999969482422,0.5899999737739563,0.8100000023841858,9.75,0.6600000262260437,0.7599999904632568,45220449
1749119620469791080,1.3125,0.75,0.4375,9.75,0.5600000023841858,0.8199999928474426,9.75,0.6499999761581421,0.7599999904632568,45220469
1749119620495997003,2.8125,1.25,0.4375,9.710000038146973,0.5400000214576721,0.7799999713897705,9.75,0.6499999761581421,0.7699999809265137,45220495
1749119620521471293,3.0625,1.6875,0.3125,9.699999809265137,0.5299999713897705,0.8299999833106995,9.75,0.6499999761581421,0.7699999809265137,45220521
1749119620536238501,2.75,1.75,0.6875,9.779999732971191,0.5400000214576721,0.8100000023841858,9.75,0.6499999761581421,0.7799999713897705,45220536
1749119620560124322,1.5625,2.0,1.25,9.729999542236328,0.5799999833106995,0.7799999713897705,9.75,0.6499999761581421,0.7799999713897705,45220560
1749119620571173683,3.4375,1.75,1.75,9.720000267028809,0.6100000143051147,0.699999988079071,9.75,0.6399999856948853,0.7900000214576721,45220571
1749119620590932179,4.0625,1.8125,1.6875,9.699999809265137,0.6000000238418579,0.7799999713897705,9.75,0.6399999856948853,0.7900000214576721,45220590
1749119620615256228,4.5,1.75,1.5625,9.529999732971191,0.7900000214576721,0.75,9.75,0.6299999952316284,0.800000011920929,45220615
1749119620629890695,3.9375,1.9375,1.4375,9.699999809265137,0.6299999952316284,0.8299999833106995,9.75,0.6299999952316284,0.800000011920929,45220629
1749119620657824794,5.5,1.6875,0.0,10.020000457763672,0.75,1.1100000143051147,9.75,0.6299999952316284,0.8100000023841858,45220657
1749119620670138156,7.0625,1.875,-1.3125,9.890000343322754,0.6600000262260437,0.9100000262260436,9.75,0.6399999856948853,0.8100000023841858,45220670
1749119620692110023,9.375,2.5625,-1.8125,9.760000228881836,0.5400000214576721,0.75,9.75,0.6399999856948853,0.8199999928474426,45220692
1749119620715965316,10.9375,3.4375,-1.375,9.649999618530272,0.6100000143051147,0.7599999904632568,9.739999771118164,0.6499999761581421,0.8299999833106995,45220715
1749119620741216368,10.5,2.5625,-0.5,9.56999969482422,0.8700000047683716,0.8600000143051147,9.739999771118164,0.6600000262260437,0.8299999833106995,45220741
1749119620752733311,7.9375,1.5625,0.0625,9.65999984741211,1.0299999713897705,0.8199999928474426,9.739999771118164,0.6600000262260437,0.8399999737739563,45220752
1749119620774951343,6.0,1.5,0.5,9.770000457763672,0.949999988079071,0.800000011920929,9.739999771118164,0.6600000262260437,0.8399999737739563,45220774
1749119620799051079,5.8125,1.6875,0.375,9.81999969482422,0.800000011920929,0.8899999856948853,9.739999771118164,0.6600000262260437,0.8500000238418579,45220799
1749119620816072809,7.4375,2.0,-0.1875,9.880000114440918,0.8600000143051147,0.8899999856948853,9.739999771118164,0.6700000166893005,0.8500000238418579,45220816
1749119620856073453,7.5625,2.9375,-1.0,9.75,0.8600000143051147,0.7900000214576721,9.739999771118164,0.6700000166893005,0.8600000143051147,45220856
1749119620859839872,7.4375,3.4375,-1.8125,9.579999923706056,0.8799999952316284,0.7400000095367432,9.739999771118164,0.6800000071525574,0.8700000047683716,45220859
1749119620879989619,7.4375,3.75,-2.5,9.539999961853027,0.8700000047683716,0.7599999904632568,9.739999771118164,0.699999988079071,0.8700000047683716,45220879
1749119620891987999,6.0625,3.9375,-2.8125,9.600000381469728,0.8999999761581421,0.8899999856948853,9.729999542236328,0.7099999785423279,0.8899999856948853,45220891
1749119620916843703,4.9375,3.5,-2.25,9.770000457763672,0.9900000095367432,0.9900000095367432,9.729999542236328,0.7200000286102295,0.8999999761581421,45220916
1749119620930800021,3.3125,3.0625,-1.5625,9.779999732971191,1.090000033378601,0.9399999976158142,9.729999542236328,0.7300000190734863,0.9100000262260436,45220930
1749119620950213392,2.75,3.0,-1.25,9.739999771118164,1.0499999523162842,0.9800000190734864,9.729999542236328,0.7400000095367432,0.9200000166893004,45220950
1749119620970694308,0.5,2.5625,-0.3125,9.729999542236328,0.9800000190734864,0.959999978542328,9.729999542236328,0.75,0.9300000071525574,45220970
1749119620995394984,-1.8125,2.3125,-0.125,9.5600004196167,0.8399999737739563,0.9900000095367432,9.729999542236328,0.75,0.9300000071525574,45220995
1749119621010931165,-2.75,2.0625,0.0625,9.31999969482422,0.8199999928474426,0.9700000286102296,9.729999542236328,0.75,0.9399999976158142,45221010
1749119621028919195,-5.8125,0.8125,1.25,9.529999732971191,0.9300000071525574,1.2599999904632568,9.729999542236328,0.7400000095367432,0.949999988079071,45221028
1749119621055502404,-4.875,0.3125,1.8125,9.949999809265137,1.059999942779541,1.3300000429153442,9.729999542236328,0.7400000095367432,0.949999988079071,45221055
1749119621084028036,-3.625,0.5625,1.25,10.029999732971191,0.9200000166893004,1.440000057220459,9.729999542236328,0.7300000190734863,0.949999988079071,45221084
1749119621095122861,-3.0,-0.4375,0.4375,9.989999771118164,0.5699999928474426,1.309999942779541,9.729999542236328,0.7300000190734863,0.949999988079071,45221095
1749119621120018076,1.5625,0.25,-0.0625,9.760000228881836,0.3899999856948852,1.190000057220459,9.729999542236328,0.7300000190734863,0.949999988079071,45221120
1749119621130039500,6.1875,0.9375,-0.5625,9.600000381469728,0.3799999952316284,1.0199999809265137,9.729999542236328,0.7300000190734863,0.949999988079071,45221130
1749119621149849359,6.6875,1.0625,-0.875,9.470000267028809,0.6399999856948853,0.8600000143051147,9.729999542236328,0.7400000095367432,0.959999978542328,45221149
1749119621175263930,3.875,2.125,-0.125,9.489999771118164,0.9399999976158142,0.7400000095367432,9.729999542236328,0.7400000095367432,0.959999978542328,45221175
1749119621191015201,2.375,1.5625,0.5625,9.609999656677246,1.0700000524520874,0.7300000190734863,9.729999542236328,0.7400000095367432,0.9700000286102296,45221191
1749119621211747675,1.3125,1.1875,0.5625,9.899999618530272,1.1299999952316284,0.7699999809265137,9.720000267028809,0.7400000095367432,0.9700000286102296,45221211
1749119621235076738,-3.375,0.3125,0.125,9.84000015258789,1.0099999904632568,0.8199999928474426,9.720000267028809,0.7400000095367432,0.9700000286102296,45221235
1749119621252315574,-4.0,0.125,-0.0625,9.859999656677246,0.8999999761581421,0.8199999928474426,9.720000267028809,0.7400000095367432,0.9700000286102296,45221252
1749119621277333386,-3.875,0.5625,-1.1875,9.729999542236328,0.3899999856948852,1.0,9.720000267028809,0.7400000095367432,0.9700000286102296,45221277
1749119621291042031,-2.3125,1.125,-1.1875,9.739999771118164,0.2399999946355819,1.1399999856948853,9.720000267028809,0.7400000095367432,0.9800000190734864,45221291
1749119621310089367,-1.125,1.375,-1.125,9.699999809265137,0.2300000041723251,1.159999966621399,9.720000267028809,0.7400000095367432,0.9800000190734864,45221310
1749119621334793771,4.5625,1.6875,-0.1875,9.829999923706056,0.4799999892711639,1.100000023841858,9.720000267028809,0.75,0.9900000095367432,45221334
1749119621358082332,6.125,1.875,0.1875,9.630000114440918,0.5699999928474426,1.2400000095367432,9.720000267028809,0.7400000095367432,0.9900000095367432,45221358
1749119621381999771,7.8125,0.9375,1.375,9.890000343322754,0.6499999761581421,1.159999966621399,9.720000267028809,0.7400000095367432,0.9900000095367432,45221381
1749119621426392810,9.375,1.625,0.875,9.649999618530272,0.449999988079071,1.190000057220459,9.720000267028809,0.7400000095367432,1.0,45221426
1749119621445044403,9.0,0.5625,-0.0625,9.68000030517578,0.5,0.959999978542328,9.720000267028809,0.7400000095367432,1.0,45221445
1749119621456882648,11.25,0.8125,-0.625,9.699999809265137,0.6299999952316284,1.0,9.720000267028809,0.75,1.0,45221456
1749119621471045149,12.4375,0.5625,-0.6875,9.800000190734863,0.6399999856948853,0.9100000262260436,9.720000267028809,0.75,1.0,45221471
1749119621476936694,13.8125,1.3125,-0.75,9.729999542236328,0.8299999833106995,0.9399999976158142,9.720000267028809,0.7599999904632568,1.0,45221476
1749119621491863538,16.25,2.5,-0.75,9.6899995803833,0.8899999856948853,0.8799999952316284,9.720000267028809,0.7699999809265137,1.0,45221491
1749119621517006960,14.875,3.125,-0.8125,9.6899995803833,0.959999978542328,0.8500000238418579,9.720000267028809,0.7699999809265137,1.0,45221517
1749119621531139417,13.1875,3.3125,-0.5,9.619999885559082,1.2400000095367432,0.7699999809265137,9.720000267028809,0.7799999713897705,1.0099999904632568,45221531
1749119621556204594,12.25,3.125,-0.4375,9.59000015258789,1.3600000143051147,0.8199999928474426,9.720000267028809,0.7799999713897705,1.0099999904632568,45221556
1749119621574949894,7.875,2.1875,0.0625,9.510000228881836,1.659999966621399,0.8600000143051147,9.720000267028809,0.7900000214576721,1.0199999809265137,45221574
1749119621596161668,1.625,1.25,-0.0625,9.670000076293944,1.7599999904632568,0.7400000095367432,9.720000267028809,0.7900000214576721,1.0199999809265137,45221596
1749119621614121125,0.0625,1.5625,0.375,9.529999732971191,1.659999966621399,0.8199999928474426,9.710000038146973,0.7900000214576721,1.0299999713897705,45221614
1749119621636121157,-5.75,1.5625,0.125,9.609999656677246,1.440000057220459,0.9200000166893004,9.710000038146973,0.8100000023841858,1.0399999618530271,45221636
1749119621660063310,-6.8125,2.125,0.25,9.609999656677246,1.1100000143051147,1.059999942779541,9.710000038146973,0.8100000023841858,1.0399999618530271,45221660
1749119621672187488,-9.25,2.5,-1.1875,9.649999618530272,0.8100000023841858,0.9700000286102296,9.710000038146973,0.8100000023841858,1.0499999523162842,45221672
1749119621695968823,-8.75,2.875,-1.4375,9.770000457763672,0.7699999809265137,0.959999978542328,9.710000038146973,0.8100000023841858,1.0700000524520874,45221695
1749119621721017365,-8.9375,2.875,-1.375,9.670000076293944,0.7699999809265137,1.0,9.710000038146973,0.8100000023841858,1.0700000524520874,45221721
1749119621733716433,-9.625,3.0625,-1.625,9.760000228881836,0.6700000166893005,1.149999976158142,9.710000038146973,0.8100000023841858,1.090000033378601,45221733
1749119621751059281,-9.0625,3.25,-1.8125,9.779999732971191,0.5400000214576721,1.0299999713897705,9.699999809265137,0.8100000023841858,1.100000023841858,45221751
1749119621775090976,-5.375,3.8125,-1.75,9.670000076293944,0.4099999964237213,1.2000000476837158,9.699999809265137,0.8199999928474426,1.1200000047683716,45221775
1749119621796492565,-2.0,3.6875,-1.9375,9.68000030517578,0.5099999904632568,1.2799999713897705,9.699999809265137,0.8199999928474426,1.1299999952316284,45221796
1749119621817038980,-1.1875,3.75,-1.625,9.720000267028809,0.5099999904632568,1.2400000095367432,9.699999809265137,0.8199999928474426,1.1399999856948853,45221817
1749119621839068248,4.6875,4.25,-0.4375,9.729999542236328,0.8100000023841858,1.2400000095367432,9.699999809265137,0.8199999928474426,1.159999966621399,45221839
1749119621849892411,5.375,4.1875,-0.125,9.760000228881836,0.949999988079071,1.2899999618530271,9.699999809265137,0.8199999928474426,1.1699999570846558,45221849
1749119621875808852,4.875,3.6875,0.0,9.739999771118164,1.0299999713897705,1.2899999618530271,9.6899995803833,0.8299999833106995,1.1799999475479126,45221875
1749119621900123253,4.375,3.5,-0.25,9.670000076293944,1.0199999809265137,1.2899999618530271,9.6899995803833,0.8299999833106995,1.190000057220459,45221900
1749119621910893231,4.5625,3.375,-0.4375,9.609999656677246,0.9900000095367432,1.2599999904632568,9.6899995803833,0.8299999833106995,1.2000000476837158,45221910
1749119621935930908,4.8125,3.4375,0.1875,9.5600004196167,1.2200000286102295,1.2799999713897705,9.6899995803833,0.8399999737739563,1.2100000381469729,45221935
1749119621961943647,4.3125,3.4375,0.1875,9.539999961853027,1.309999942779541,1.2699999809265137,9.6899995803833,0.8500000238418579,1.2200000286102295,45221961
1749119621983052816,1.8125,3.25,0.25,9.699999809265137,1.1200000047683716,1.2000000476837158,9.68000030517578,0.8600000143051147,1.2400000095367432,45221983
1749119621993792797,0.1875,3.5,-0.4375,9.710000038146973,1.2200000286102295,1.149999976158142,9.68000030517578,0.8700000047683716,1.25,45221993
1749119622019316664,-0.8125,3.375,-0.5625,9.760000228881836,1.0099999904632568,1.25,9.68000030517578,0.8700000047683716,1.25,45222019
1749119622031844580,0.6875,3.8125,-2.5,9.699999809265137,0.5799999833106995,1.3200000524520874,9.68000030517578,0.8799999952316284,1.2699999809265137,45222031
1749119622056846077,1.9375,3.75,-3.3125,9.68000030517578,0.5600000023841858,1.2799999713897705,9.68000030517578,0.8799999952316284,1.2799999713897705,45222056
1749119622080071092,3.375,5.375,-3.875,9.479999542236328,0.550000011920929,1.440000057220459,9.670000076293944,0.9100000262260436,1.2999999523162842,45222080
1749119622092042043,8.6875,4.1875,-6.125,9.770000457763672,0.1299999952316284,1.0299999713897705,9.670000076293944,0.9200000166893004,1.309999942779541,45222092
1749119622110098572,10.6875,7.1875,-7.375,9.670000076293944,-0.0399999991059303,1.100000023841858,9.670000076293944,0.9399999976158142,1.3200000524520874,45222110
1749119622132742200,16.5,7.8125,-9.0625,9.779999732971191,0.3600000143051147,1.25,9.65999984741211,0.9900000095367432,1.3600000143051147,45222132
1749119622153103922,20.125,8.3125,-9.25,9.779999732971191,0.3700000047683716,1.1699999570846558,9.649999618530272,1.0099999904632568,1.3700000047683716,45222153
1749119622170971140,26.625,9.875,-10.0,9.81999969482422,0.7699999809265137,1.149999976158142,9.640000343322754,1.059999942779541,1.399999976158142,45222170
1749119622190808507,27.6875,11.0,-10.1875,9.84000015258789,1.0399999618530271,1.1399999856948853,9.630000114440918,1.100000023841858,1.4199999570846558,45222190
1749119622217129141,27.125,11.25,-9.9375,9.739999771118164,1.3600000143051147,1.1399999856948853,9.630000114440918,1.1299999952316284,1.4299999475479126,45222217
1749119622231177836,24.6875,11.3125,-8.8125,9.59000015258789,1.6299999952316284,1.159999966621399,9.619999885559082,1.190000057220459,1.4700000286102295,45222231
1749119622250940959,22.625,11.25,-8.0,9.520000457763672,1.7599999904632568,1.2200000286102295,9.609999656677246,1.2100000381469729,1.4900000095367432,45222250
1749119622276083080,15.8125,10.5625,-6.8125,9.479999542236328,1.850000023841858,1.2599999904632568,9.600000381469728,1.2599999904632568,1.5299999713897705,45222276
1749119622300098775,12.25,9.875,-6.4375,9.470000267028809,1.659999966621399,1.4700000286102295,9.59000015258789,1.2899999618530271,1.559999942779541,45222300
1749119622317374593,11.625,9.8125,-6.8125,9.479999542236328,1.590000033378601,1.5499999523162842,9.59000015258789,1.309999942779541,1.5700000524520874,45222317
1749119622333258789,10.6875,10.875,-8.375,9.510000228881836,1.3899999856948853,1.6699999570846558,9.56999969482422,1.350000023841858,1.6100000143051147,45222333
1749119622356910699,11.0,11.3125,-9.125,9.529999732971191,1.3700000047683716,1.7100000381469729,9.56999969482422,1.3700000047683716,1.6299999952316284,45222356
1749119622383144027,11.625,13.0625,-10.1875,9.529999732971191,1.4199999570846558,1.809999942779541,9.550000190734863,1.4299999475479126,1.6799999475479126,45222383
1749119622395051684,12.125,15.5,-10.6875,9.510000228881836,1.6699999570846558,1.899999976158142,9.529999732971191,1.4700000286102295,1.7300000190734863,45222395
1749119622412086855,11.875,16.0625,-10.6875,9.470000267028809,1.7200000286102295,1.899999976158142,9.529999732971191,1.4900000095367432,1.75,45222412
1749119622434858624,10.25,16.125,-10.125,9.380000114440918,1.919999957084656,2.039999961853028,9.5,1.5499999523162842,1.8200000524520876,45222434
1749119622454109579,9.5,15.8125,-9.75,9.40999984741211,1.919999957084656,2.039999961853028,9.5,1.5700000524520874,1.840000033378601,45222454
1749119622473836495,6.5625,13.375,-7.375,9.43000030517578,2.0299999713897705,2.130000114440918,9.470000267028809,1.6299999952316284,1.909999966621399,45222473
1749119622496066938,4.5,10.9375,-5.0625,9.380000114440918,2.0999999046325684,2.190000057220459,9.460000038146973,1.659999966621399,1.950000047683716,45222496
1749119622509214857,3.0625,9.6875,-4.0625,9.359999656677246,2.0999999046325684,2.190000057220459,9.449999809265137,1.6799999475479126,1.9700000286102293,45222509
1749119622534946795,-1.25,6.5,-0.3125,9.369999885559082,2.039999961853028,2.2300000190734863,9.4399995803833,1.7000000476837158,2.009999990463257,45222534
1749119622556057666,-2.8125,5.8125,0.9375,9.329999923706056,2.059999942779541,2.240000009536743,9.4399995803833,1.7000000476837158,2.0299999713897705,45222556
1749119622578974971,-5.1875,4.375,3.8125,9.270000457763672,2.130000114440918,2.2699999809265137,9.43000030517578,1.7000000476837158,2.049999952316284,45222578
1749119622595115492,-8.5625,3.0625,5.875,9.34000015258789,2.109999895095825,2.2100000381469727,9.43000030517578,1.690000057220459,2.0799999237060547,45222595
1749119622620361704,-9.25,2.3125,6.25,9.399999618530272,2.059999942779541,2.25,9.43000030517578,1.6799999475479126,2.0899999141693115,45222620
1749119622649046527,-9.8125,0.875,5.8125,9.369999885559082,2.059999942779541,2.240000009536743,9.420000076293944,1.659999966621399,2.109999895095825,45222649
1749119622659041873,-10.0,0.5625,5.4375,9.350000381469728,2.109999895095825,2.2300000190734863,9.420000076293944,1.649999976158142,2.119999885559082,45222659
1749119622696942026,-11.25,0.5,4.5,9.279999732971191,2.0999999046325684,2.259999990463257,9.420000076293944,1.649999976158142,2.130000114440918,45222696
1749119622722146364,-13.625,0.4375,2.25,9.300000190734863,2.049999952316284,2.309999942779541,9.420000076293944,1.6399999856948853,2.140000104904175,45222722
1749119622748211828,-14.5625,0.375,1.8125,9.300000190734863,2.0299999713897705,2.319999933242798,9.420000076293944,1.6399999856948853,2.150000095367432,45222748
1749119622773949648,-15.8125,0.75,-0.4375,9.300000190734863,1.950000047683716,2.3499999046325684,9.40999984741211,1.6399999856948853,2.1700000762939453,45222773
1749119622785104881,-15.6875,0.75,-1.25,9.3100004196167,1.899999976158142,2.390000104904175,9.40999984741211,1.6399999856948853,2.180000066757202,45222785
1749119622790766003,-14.625,0.1875,-3.25,9.350000381469728,1.809999942779541,2.390000104904175,9.40999984741211,1.6399999856948853,2.190000057220459,45222790
1749119622804025133,-11.4375,0.0,-6.8125,9.329999923706056,1.6799999475479126,2.299999952316284,9.399999618530272,1.659999966621399,2.200000047683716,45222804
1749119622809306150,-11.0625,0.0,-8.0,9.300000190734863,1.6799999475479126,2.3399999141693115,9.399999618530272,1.659999966621399,2.2100000381469727,45222809
1749119622836119860,-6.8125,-0.6875,-11.9375,9.40999984741211,1.5199999809265137,2.2300000190734863,9.390000343322754,1.7000000476837158,2.220000028610229,45222836
1749119622852014661,-5.125,-0.5625,-13.4375,9.399999618530272,1.5299999713897705,2.259999990463257,9.390000343322754,1.7200000286102295,2.220000028610229,45222852
1749119622871594603,-3.3125,0.25,-15.875,9.470000267028809,1.600000023841858,2.2799999713897705,9.380000114440918,1.7699999809265137,2.220000028610229,45222871
1749119622896198578,0.3125,0.6875,-17.625,9.34000015258789,1.7100000381469729,2.3299999237060547,9.359999656677246,1.840000033378601,2.2300000190734863,45222896
1749119622918204547,1.0625,0.3125,-17.625,9.350000381469728,1.7100000381469729,2.319999933242798,9.359999656677246,1.870000004768372,2.2300000190734863,45222918
1749119622943274467,1.125,0.4375,-16.5625,9.260000228881836,1.8799999952316284,2.309999942779541,9.34000015258789,1.950000047683716,2.2300000190734863,45222943
1749119622949206412,0.4375,0.8125,-16.0,9.210000038146973,1.909999966621399,2.3299999237060547,9.34000015258789,1.9800000190734863,2.2300000190734863,45222949
1749119622973089635,-0.9375,1.75,-14.25,9.09000015258789,1.9900000095367432,2.3499999046325684,9.31999969482422,2.0199999809265137,2.2300000190734863,45222973
1749119622997698484,-1.5,1.625,-12.3125,9.0600004196167,1.909999966621399,2.25,9.3100004196167,2.0799999237060547,2.240000009536743,45222997
1749119623013891774,-0.25,-0.125,-10.5625,9.079999923706056,1.8799999952316284,2.25,9.3100004196167,2.0899999141693115,2.25,45223013
1749119623047376554,0.4375,-3.0625,-9.4375,9.06999969482422,1.9299999475479128,2.180000066757202,9.300000190734863,2.140000104904175,2.240000009536743,45223047
1749119623052122972,0.5,-3.75,-9.0625,9.119999885559082,2.049999952316284,2.0899999141693115,9.300000190734863,2.150000095367432,2.2300000190734863,45223052
1749119623069474522,0.9375,-4.9375,-8.0,9.130000114440918,2.109999895095825,2.0199999809265137,9.300000190734863,2.180000066757202,2.2100000381469727,45223069
1749119623093836393,1.5625,-6.25,-6.5625,9.229999542236328,1.9900000095367432,2.0799999237060547,9.300000190734863,2.2100000381469727,2.180000066757202,45223093
1749119623119925307,1.375,-6.75,-5.125,9.220000267028809,1.9600000381469729,2.0999999046325684,9.300000190734863,2.2100000381469727,2.1700000762939453,45223119
1749119623134424768,0.875,-6.6875,-4.0625,9.220000267028809,1.940000057220459,2.140000104904175,9.300000190734863,2.2300000190734863,2.140000104904175,45223134
1749119623153746389,0.6875,-6.125,-2.8125,9.199999809265137,1.919999957084656,2.130000114440918,9.300000190734863,2.2300000190734863,2.130000114440918,45223153
1749119623175126100,2.3125,-6.1875,-2.5,9.239999771118164,1.850000023841858,2.059999942779541,9.3100004196167,2.240000009536743,2.0999999046325684,45223175
1749119623199160918,5.125,-6.5625,-2.4375,9.220000267028809,1.870000004768372,1.9700000286102293,9.3100004196167,2.240000009536743,2.069999933242798,45223199
1749119623222755760,7.75,-7.4375,-2.6875,9.260000228881836,1.9299999475479128,1.940000057220459,9.31999969482422,2.25,2.049999952316284,45223222
1749119623240009086,10.0,-8.5,-2.875,9.289999961853027,1.919999957084656,1.9700000286102293,9.31999969482422,2.259999990463257,2.0,45223240
1749119623264018731,11.5,-9.25,-2.5625,9.300000190734863,2.0199999809265137,1.9900000095367432,9.329999923706056,2.2699999809265137,1.9800000190734863,45223264
1749119623269835867,12.0,-9.9375,-1.4375,9.270000457763672,2.049999952316284,2.009999990463257,9.329999923706056,2.2799999713897705,1.940000057220459,45223269
1749119623294943507,12.375,-10.6875,-0.75,9.300000190734863,2.0199999809265137,1.9900000095367432,9.34000015258789,2.289999961853028,1.8799999952316284,45223294
1749119623321057598,12.625,-10.875,0.125,9.279999732971191,2.039999961853028,1.919999957084656,9.350000381469728,2.289999961853028,1.8600000143051147,45223321
1749119623335873208,12.0625,-11.375,1.5625,9.31999969482422,2.119999885559082,1.830000042915344,9.350000381469728,2.289999961853028,1.809999942779541,45223335
1749119623355110819,12.375,-12.0,3.875,9.350000381469728,2.049999952316284,1.7200000286102295,9.359999656677246,2.289999961853028,1.7699999809265137,45223355
1749119623379300290,11.875,-14.1875,7.125,9.399999618530272,2.0199999809265137,1.7400000095367432,9.380000114440918,2.2699999809265137,1.7200000286102295,45223379
1749119623396965314,10.0,-15.0,11.4375,9.449999809265137,1.5,1.690000057220459,9.399999618530272,2.220000028610229,1.6399999856948853,45223396
1749119623419084057,11.625,-13.6875,16.0625,9.470000267028809,1.5,1.6299999952316284,9.40999984741211,2.200000047683716,1.6100000143051147,45223419
1749119623434480360,15.75,-11.0,21.125,9.68000030517578,1.5199999809265137,1.600000023841858,9.449999809265137,2.109999895095825,1.5399999618530271,45223434
1749119623460031825,18.5,-7.25,23.6875,9.649999618530272,1.5800000429153442,1.870000004768372,9.460000038146973,2.0799999237060547,1.5199999809265137,45223460
1749119623470336869,25.4375,-10.6875,24.6875,10.210000038146973,2.2100000381469727,1.600000023841858,9.479999542236328,2.0,1.4800000190734863,45223470
1749119623498059354,27.5625,-14.875,24.1875,9.800000190734863,2.720000028610229,1.940000057220459,9.510000228881836,1.909999966621399,1.3799999952316284,45223498
1749119623525081399,24.75,-12.5625,18.0625,9.489999771118164,3.130000114440918,2.059999942779541,9.520000457763672,1.8899999856948853,1.350000023841858,45223525
1749119623550179610,23.1875,-10.25,9.3125,9.039999961853027,2.5999999046325684,1.2200000286102295,9.539999961853027,1.850000023841858,1.2799999713897705,45223550
1749119623575699219,20.8125,-10.8125,6.1875,8.920000076293945,2.4100000858306885,1.159999966621399,9.539999961853027,1.850000023841858,1.2599999904632568,45223575
1749119623601354960,14.75,-13.4375,7.5625,8.899999618530273,2.0,1.3300000429153442,9.550000190734863,1.830000042915344,1.2000000476837158,45223601
1749119623620824173,13.4375,-16.0625,9.5,9.31999969482422,1.909999966621399,1.0099999904632568,9.56999969482422,1.7899999618530271,1.1200000047683716,45223620
1749119623620939763,11.25,-14.875,11.875,9.43000030517578,2.2699999809265137,0.8999999761581421,9.579999923706056,1.7799999713897705,1.090000033378601,45223620
1749119623634045400,4.75,-15.9375,12.3125,9.699999809265137,2.5799999237060547,1.1200000047683716,9.600000381469728,1.7200000286102295,1.0099999904632568,45223634
1749119623651862710,2.375,-17.3125,12.125,9.770000457763672,2.25,1.2899999618530271,9.600000381469728,1.7000000476837158,0.9800000190734864,45223651
1749119623672021139,1.875,-16.125,12.1875,9.609999656677246,1.899999976158142,1.0199999809265137,9.609999656677246,1.659999966621399,0.9200000166893004,45223672
1749119623694913314,0.875,-16.25,12.875,9.550000190734863,1.850000023841858,0.8399999737739563,9.630000114440918,1.6200000047683716,0.8700000047683716,45223694
1749119623719022946,-0.25,-17.6875,13.8125,9.489999771118164,1.919999957084656,0.800000011920929,9.640000343322754,1.5800000429153442,0.8100000023841858,45223719
1749119623729107970,-2.0625,-19.625,15.25,9.5,1.940000057220459,0.6499999761581421,9.649999618530272,1.5299999713897705,0.75,45223729
1749119623757346388,-6.75,-20.625,16.75,9.539999961853027,1.840000033378601,0.6100000143051147,9.65999984741211,1.4800000190734863,0.6899999976158142,45223757
1749119623769223629,-11.6875,-21.0625,17.5625,9.529999732971191,1.600000023841858,0.550000011920929,9.68000030517578,1.4199999570846558,0.6200000047683716,45223769
1749119623797061391,-12.3125,-20.25,17.375,9.56999969482422,1.4299999475479126,0.5099999904632568,9.6899995803833,1.3600000143051147,0.5600000023841858,45223797
1749119623810871207,-12.625,-19.1875,16.625,9.520000457763672,1.3799999952316284,0.3300000131130218,9.699999809265137,1.309999942779541,0.5,45223810
1749119623831353495,-12.375,-19.25,15.125,9.59000015258789,1.1399999856948853,0.25,9.710000038146973,1.25,0.4399999976158142,45223831
1749119623856213046,-12.5625,-18.75,14.625,9.600000381469728,1.340000033378601,0.2199999988079071,9.720000267028809,1.2100000381469729,0.3899999856948852,45223856
1749119623881197016,-13.1875,-17.4375,14.125,9.640000343322754,1.059999942779541,0.2000000029802322,9.729999542236328,1.159999966621399,0.3300000131130218,45223881
1749119623895967579,-11.625,-15.5,13.75,9.65999984741211,1.159999966621399,0.1099999994039535,9.729999542236328,1.1100000143051147,0.2800000011920929,45223895
1749119623910055818,-12.0625,-14.625,12.8125,9.720000267028809,0.949999988079071,0.0,9.739999771118164,1.0700000524520874,0.2399999946355819,45223910
1749119623934817324,-12.625,-13.875,12.25,9.779999732971191,1.0499999523162842,0.0799999982118606,9.75,1.0199999809265137,0.1899999976158142,45223934
1749119623950014546,-14.4375,-13.375,11.8125,9.789999961853027,0.8799999952316284,0.0,9.75,0.9800000190734864,0.1500000059604644,45223950
1749119623985900446,-15.875,-13.0,11.3125,9.739999771118164,0.8999999761581421,-0.0099999997764825,9.75,0.949999988079071,0.1099999994039535,45223985
1749119624000771799,-17.4375,-12.9375,10.4375,9.770000457763672,0.8399999737739563,0.050000000745058,9.760000228881836,0.9100000262260436,0.0799999982118606,45224000
1749119624012176963,-20.875,-13.1875,9.75,9.729999542236328,0.7900000214576721,0.1899999976158142,9.760000228881836,0.8799999952316284,0.0399999991059303,45224012
1749119624032205616,-24.0625,-12.9375,9.375,9.609999656677246,0.5699999928474426,0.1299999952316284,9.760000228881836,0.8399999737739563,0.0,45224032
1749119624056284013,-25.125,-13.25,9.625,9.550000190734863,0.6200000047683716,0.0799999982118606,9.770000457763672,0.8100000023841858,-0.0199999995529651,45224056
1749119624070273535,-24.3125,-12.625,9.9375,9.739999771118164,0.5199999809265137,0.0700000002980232,9.770000457763672,0.7699999809265137,-0.0599999986588954,45224070
1749119624097031042,-21.9375,-11.4375,8.875,9.779999732971191,0.5299999713897705,-0.0900000035762786,9.770000457763672,0.7400000095367432,-0.0900000035762786,45224097
1749119624111953710,-16.75,-10.9375,6.375,9.970000267028809,0.6100000143051147,-0.1299999952316284,9.770000457763672,0.7200000286102295,-0.1199999973177909,45224111
1749119624131750008,-10.125,-10.1875,2.8125,10.100000381469728,0.699999988079071,-0.209999993443489,9.770000457763672,0.699999988079071,-0.1500000059604644,45224131
1749119624151316372,-3.25,-9.0,-0.8125,10.0,0.9399999976158142,-0.4099999964237213,9.770000457763672,0.699999988079071,-0.1800000071525573,45224151
1749119624168993565,0.9375,-7.25,-3.8125,9.9399995803833,0.8299999833106995,-0.4699999988079071,9.770000457763672,0.7200000286102295,-0.209999993443489,45224168
1749119624189130993,4.0625,-6.0,-5.0,9.789999961853027,0.8199999928474426,-0.6100000143051147,9.770000457763672,0.7300000190734863,-0.2300000041723251,45224189
1749119624208955576,5.5,-5.0,-4.625,9.770000457763672,0.699999988079071,-0.6700000166893005,9.770000457763672,0.75,-0.2599999904632568,45224208
1749119624234855048,6.8125,-4.375,-3.9375,9.770000457763672,0.4699999988079071,-0.6899999976158142,9.770000457763672,0.7599999904632568,-0.2800000011920929,45224234
1749119624255167865,9.875,-3.4375,-2.625,9.770000457763672,0.4399999976158142,-0.699999988079071,9.770000457763672,0.7699999809265137,-0.2899999916553497,45224255
1749119624280876832,13.0,-1.6875,-0.4375,9.81999969482422,0.4099999964237213,-0.6399999856948853,9.770000457763672,0.7699999809265137,-0.3100000023841858,45224280
1749119624290081581,15.0,-0.8125,1.0625,9.789999961853027,0.5099999904632568,-0.6100000143051147,9.770000457763672,0.75,-0.3199999928474426,45224290
1749119624310339242,17.0,-0.4375,2.5625,9.779999732971191,0.6899999976158142,-0.5,9.770000457763672,0.7400000095367432,-0.3300000131130218,45224310
1749119624330054084,17.125,-0.5,3.0625,9.779999732971191,0.7799999713897705,-0.6200000047683716,9.770000457763672,0.7300000190734863,-0.3400000035762787,45224330
1749119624356065618,15.5625,-1.0625,2.875,9.760000228881836,0.9300000071525574,-0.6000000238418579,9.770000457763672,0.7200000286102295,-0.3400000035762787,45224356
1749119624368790932,14.5625,-1.75,2.125,9.800000190734863,1.0,-0.6100000143051147,9.770000457763672,0.7099999785423279,-0.3499999940395355,45224368
1749119624395369340,14.0,-1.3125,1.375,9.770000457763672,1.0700000524520874,-0.699999988079071,9.770000457763672,0.7099999785423279,-0.3700000047683716,45224395
1749119624414847144,13.1875,-0.875,0.6875,9.829999923706056,1.090000033378601,-0.6700000166893005,9.770000457763672,0.7200000286102295,-0.3899999856948852,45224414
1749119624440056896,11.6875,-0.6875,-0.125,9.75,1.0299999713897705,-0.7300000190734863,9.770000457763672,0.7300000190734863,-0.4000000059604645,45224440
1749119624448964851,9.6875,-0.8125,-0.0625,9.770000457763672,1.0199999809265137,-0.7200000286102295,9.760000228881836,0.7300000190734863,-0.4099999964237213,45224448
1749119624486909090,8.0,-0.0625,0.25,9.720000267028809,0.949999988079071,-0.6899999976158142,9.760000228881836,0.7400000095367432,-0.4199999868869781,45224486
1749119624499819727,6.5,0.0625,0.8125,9.75,0.8600000143051147,-0.7400000095367432,9.760000228881836,0.7400000095367432,-0.4300000071525574,45224499
1749119624513907085,5.3125,-0.1875,0.875,9.710000038146973,0.7799999713897705,-0.6800000071525574,9.760000228881836,0.7400000095367432,-0.4399999976158142,45224513
1749119624540300184,5.375,-0.1875,1.4375,9.710000038146973,0.7599999904632568,-0.5199999809265137,9.760000228881836,0.7300000190734863,-0.449999988079071,45224540
1749119624567116528,5.1875,-0.5,1.8125,9.720000267028809,0.8799999952316284,-0.550000011920929,9.760000228881836,0.7300000190734863,-0.449999988079071,45224567
1749119624569680859,4.375,-0.3125,2.1875,9.75,0.800000011920929,-0.5199999809265137,9.760000228881836,0.7200000286102295,-0.449999988079071,45224569
1749119624589081223,3.4375,0.1875,2.3125,9.729999542236328,0.800000011920929,-0.550000011920929,9.760000228881836,0.7099999785423279,-0.449999988079071,45224589
1749119624611826696,3.9375,0.5,2.9375,9.739999771118164,0.6899999976158142,-0.4900000095367431,9.770000457763672,0.7099999785423279,-0.449999988079071,45224611
1749119624633547035,4.8125,0.875,3.6875,9.729999542236328,0.7300000190734863,-0.5199999809265137,9.770000457763672,0.6899999976158142,-0.449999988079071,45224633
1749119624649819198,4.75,1.3125,4.5625,9.6899995803833,0.7900000214576721,-0.6000000238418579,9.770000457763672,0.6800000071525574,-0.449999988079071,45224649
1749119624675992087,4.9375,0.75,4.8125,9.760000228881836,0.800000011920929,-0.6399999856948853,9.770000457763672,0.6600000262260437,-0.449999988079071,45224675
1749119624690229680,4.5625,0.25,4.75,9.770000457763672,0.7400000095367432,-0.5299999713897705,9.770000457763672,0.6499999761581421,-0.449999988079071,45224690
1749119624716036550,3.5625,0.3125,4.375,9.84000015258789,0.75,-0.5299999713897705,9.770000457763672,0.6299999952316284,-0.449999988079071,45224716
1749119624732013699,5.0625,1.25,4.0625,9.789999961853027,0.699999988079071,-0.550000011920929,9.770000457763672,0.6200000047683716,-0.449999988079071,45224732
1749119624757009900,6.25,2.0625,4.0,9.729999542236328,0.6899999976158142,-0.4799999892711639,9.770000457763672,0.6000000238418579,-0.449999988079071,45224757
1749119624771950155,7.125,2.5,4.375,9.75,0.699999988079071,-0.449999988079071,9.770000457763672,0.5899999737739563,-0.4399999976158142,45224771
1749119624801121811,6.3125,2.4375,4.875,9.770000457763672,0.75,-0.4199999868869781,9.770000457763672,0.5699999928474426,-0.4399999976158142,45224801
1749119624809041433,6.625,2.125,5.3125,9.710000038146973,0.7900000214576721,-0.4300000071525574,9.779999732971191,0.5600000023841858,-0.4300000071525574,45224809
1749119624834247827,5.5,1.6875,5.5625,9.710000038146973,0.7699999809265137,-0.3300000131130218,9.779999732971191,0.5400000214576721,-0.4199999868869781,45224834
1749119624851847808,4.5,1.5,6.125,9.739999771118164,0.8700000047683716,-0.25,9.779999732971191,0.5299999713897705,-0.4199999868869781,45224851
1749119624877578987,4.4375,0.875,6.8125,9.710000038146973,0.8899999856948853,-0.270000010728836,9.779999732971191,0.5099999904632568,-0.4099999964237213,45224877
1749119624901899573,2.75,0.5625,7.5625,9.710000038146973,0.8100000023841858,-0.2300000041723251,9.779999732971191,0.5,-0.4099999964237213,45224901
1749119624930210384,1.625,0.3125,7.9375,9.68000030517578,0.9300000071525574,-0.1800000071525573,9.779999732971191,0.4900000095367431,-0.4000000059604645,45224930
1749119624944915632,1.1875,0.0625,8.0,9.68000030517578,1.0299999713897705,-0.270000010728836,9.779999732971191,0.4799999892711639,-0.4000000059604645,45224944
1749119624948920609,-0.5625,-0.3125,7.8125,9.65999984741211,1.0099999904632568,-0.3199999928474426,9.779999732971191,0.4699999988079071,-0.3899999856948852,45224948
1749119624969876633,-2.125,-0.9375,7.75,9.649999618530272,0.9700000286102296,-0.2000000029802322,9.779999732971191,0.4699999988079071,-0.3899999856948852,45224969
1749119624991692502,-1.6875,-0.75,8.0625,9.760000228881836,0.8600000143051147,-0.1500000059604644,9.779999732971191,0.4600000083446502,-0.3899999856948852,45224991
1749119625010177759,0.1875,0.125,8.75,9.779999732971191,0.8199999928474426,-0.2300000041723251,9.779999732971191,0.449999988079071,-0.3799999952316284,45225010
1749119625029192754,1.875,0.875,9.4375,9.670000076293944,0.8999999761581421,-0.3700000047683716,9.779999732971191,0.4300000071525574,-0.3700000047683716,45225029
1749119625054460089,1.5625,1.125,10.0625,9.649999618530272,1.0199999809265137,-0.4699999988079071,9.789999961853027,0.4199999868869781,-0.3700000047683716,45225054
1749119625071066119,1.125,0.5,10.4375,9.789999961853027,1.090000033378601,-0.5799999833106995,9.789999961853027,0.4000000059604645,-0.3700000047683716,45225071
1749119625097246097,1.0625,-0.25,10.5,9.65999984741211,1.0800000429153442,-0.699999988079071,9.789999961853027,0.4000000059604645,-0.3799999952316284,45225097
1749119625111022085,1.1875,-0.875,9.875,9.81999969482422,0.7300000190734863,-0.5699999928474426,9.789999961853027,0.3799999952316284,-0.3899999856948852,45225111
1749119625128981140,1.5,0.3125,8.1875,9.880000114440918,0.5899999737739563,-0.5,9.789999961853027,0.3499999940395355,-0.3899999856948852,45225128
1749119625148890677,3.75,2.0,5.25,9.869999885559082,0.5600000023841858,-0.449999988079071,9.789999961853027,0.3300000131130218,-0.3899999856948852,45225148
1749119625169123314,5.375,2.875,1.8125,9.789999961853027,0.6200000047683716,-0.5400000214576721,9.789999961853027,0.3199999928474426,-0.3799999952316284,45225169
1749119625189153891,4.4375,3.0,-2.0625,9.6899995803833,0.6499999761581421,-0.7099999785423279,9.789999961853027,0.3300000131130218,-0.3799999952316284,45225189
1749119625215110523,4.3125,3.4375,-5.5625,9.850000381469728,0.4099999964237213,-0.6899999976158142,9.789999961853027,0.3499999940395355,-0.3700000047683716,45225215
1749119625283913216,6.8125,4.4375,-8.3125,10.149999618530272,0.2599999904632568,-0.6299999952316284,9.789999961853027,0.3799999952316284,-0.3600000143051147,45225283
1749119625309121165,7.0625,9.0,-8.5,10.109999656677246,0.1199999973177909,-0.0799999982118606,9.789999961853027,0.4099999964237213,-0.3400000035762787,45225309
1749119625331502590,5.5625,12.625,-8.125,10.079999923706056,0.0399999991059303,-0.0399999991059303,9.789999961853027,0.4300000071525574,-0.3000000119209289,45225331
1749119625335327454,7.4375,15.4375,-8.1875,9.899999618530272,0.0399999991059303,-0.1000000014901161,9.789999961853027,0.4600000083446502,-0.25,45225335
1749119625354926584,8.5625,15.5,-8.5,9.979999542236328,0.25,-0.1700000017881393,9.789999961853027,0.4799999892711639,-0.2000000029802322,45225354
1749119625366846967,8.4375,14.8125,-9.0625,9.890000343322754,0.5600000023841858,-0.0700000002980232,9.789999961853027,0.5099999904632568,-0.1500000059604644,45225366
1749119625371828520,7.625,15.4375,-9.3125,9.880000114440918,0.5099999904632568,0.1299999952316284,9.789999961853027,0.5400000214576721,-0.1099999994039535,45225371
1749119625375104631,6.6875,14.375,-10.0,10.119999885559082,0.2399999946355819,0.2000000029802322,9.779999732971191,0.5699999928474426,-0.0599999986588954,45225375
1749119625393976726,6.875,15.625,-10.8125,10.029999732971191,0.6899999976158142,0.209999993443489,9.779999732971191,0.6100000143051147,-0.0099999997764825,45225393
1749119625413968144,7.0,16.75,-12.9375,9.989999771118164,0.449999988079071,-0.0799999982118606,9.779999732971191,0.6499999761581421,0.0299999993294477,45225413
1749119625438206355,3.8125,16.5625,-13.1875,9.84000015258789,0.1199999973177909,-0.0599999986588954,9.779999732971191,0.6800000071525574,0.0799999982118606,45225438
1749119625455028008,0.3125,19.3125,-11.0625,9.479999542236328,0.0099999997764825,0.5400000214576721,9.770000457763672,0.7200000286102295,0.1500000059604644,45225455
1749119625491111496,0.6875,20.8125,-9.8125,9.649999618530272,0.0399999991059303,0.1099999994039535,9.770000457763672,0.75,0.209999993443489,45225491
1749119625505041526,0.75,21.3125,-6.0,9.529999732971191,0.5299999713897705,0.3000000119209289,9.770000457763672,0.7799999713897705,0.2800000011920929,45225505
1749119625508805283,-4.1875,20.4375,-1.375,9.630000114440918,0.5299999713897705,0.2300000041723251,9.760000228881836,0.7900000214576721,0.3499999940395355,45225508
1749119625529084112,-4.5,17.1875,3.125,9.710000038146973,0.209999993443489,0.0299999993294477,9.760000228881836,0.7799999713897705,0.4099999964237213,45225529
1749119625559009170,-3.1875,11.6875,7.8125,9.850000381469728,-0.1500000059604644,0.2399999946355819,9.760000228881836,0.7599999904632568,0.4600000083446502,45225559
1749119625576004972,1.25,9.0625,9.625,9.859999656677246,0.2000000029802322,0.3899999856948852,9.760000228881836,0.7300000190734863,0.4900000095367431,45225576
1749119625590997815,4.5625,8.0,9.5,9.81999969482422,0.4099999964237213,0.550000011920929,9.760000228881836,0.6899999976158142,0.5099999904632568,45225590
1749119625619096213,4.4375,7.4375,8.25,9.84000015258789,0.4900000095367431,0.6200000047683716,9.760000228881836,0.6700000166893005,0.5400000214576721,45225619
1749119625631961381,3.8125,7.9375,7.875,9.779999732971191,0.5600000023841858,0.8299999833106995,9.760000228881836,0.6399999856948853,0.5600000023841858,45225631
1749119625654966309,2.9375,9.6875,6.5,9.729999542236328,0.4699999988079071,0.949999988079071,9.760000228881836,0.6200000047683716,0.5899999737739563,45225654
1749119625680907058,2.9375,12.0625,4.5,9.699999809265137,0.3600000143051147,0.9900000095367432,9.760000228881836,0.6000000238418579,0.6299999952316284,45225680
1749119625690275213,4.6875,13.4375,2.375,9.670000076293944,0.5299999713897705,1.0399999618530271,9.760000228881836,0.5899999737739563,0.6800000071525574,45225690
1749119625710230107,6.3125,17.1875,-0.625,9.68000030517578,0.6200000047683716,1.0499999523162842,9.760000228881836,0.5899999737739563,0.7400000095367432,45225710
1749119625730009456,6.6875,18.1875,-1.3125,9.6899995803833,0.6600000262260437,1.1100000143051147,9.75,0.6000000238418579,0.800000011920929,45225730
1749119625756016032,7.4375,19.6875,-3.0,9.729999542236328,0.949999988079071,1.340000033378601,9.739999771118164,0.6100000143051147,0.8700000047683716,45225756
1749119625775103696,5.75,21.75,-4.875,9.739999771118164,1.1200000047683716,1.440000057220459,9.739999771118164,0.6299999952316284,0.9399999976158142,45225775
1749119625792115080,4.375,24.625,-9.375,9.739999771118164,1.25,1.4900000095367432,9.729999542236328,0.6600000262260437,1.0199999809265137,45225792
1749119625818104288,2.0625,25.875,-13.375,9.65999984741211,1.2699999809265137,1.600000023841858,9.710000038146973,0.699999988079071,1.100000023841858,45225818
1749119625830344855,1.4375,26.875,-15.4375,9.600000381469728,1.340000033378601,1.7300000190734863,9.699999809265137,0.7599999904632568,1.2000000476837158,45225830
1749119625854969514,-0.625,30.6875,-22.4375,9.550000190734863,1.4500000476837158,1.7799999713897705,9.670000076293944,0.8500000238418579,1.309999942779541,45225854
1749119625881037088,-1.5,31.5,-24.8125,9.510000228881836,1.5,1.7899999618530271,9.649999618530272,0.949999988079071,1.4299999475479126,45225881
1749119625890087073,-3.4375,31.5,-31.4375,9.43000030517578,1.6299999952316284,1.830000042915344,9.619999885559082,1.0700000524520874,1.5499999523162842,45225890
1749119625909056791,-3.8125,30.75,-33.375,9.43000030517578,1.690000057220459,1.830000042915344,9.59000015258789,1.2000000476837158,1.659999966621399,45225909
1749119625930279388,-6.75,25.8125,-38.0625,9.43000030517578,1.809999942779541,1.840000033378601,9.550000190734863,1.3300000429153442,1.75,45225930
1749119625951042778,-11.6875,21.375,-40.5,9.5,2.0799999237060547,1.7799999713897705,9.520000457763672,1.4600000381469729,1.830000042915344,45225951
1749119625971196008,-14.8125,18.75,-41.375,9.229999542236328,2.150000095367432,1.690000057220459,9.489999771118164,1.5800000429153442,1.8899999856948853,45225971
1749119625991131352,-24.625,8.8125,-42.375,9.029999732971191,2.299999952316284,1.7100000381469729,9.449999809265137,1.7000000476837158,1.940000057220459,45225991
1749119626015998461,-29.3125,4.5,-42.25,9.079999923706056,1.840000033378601,1.5700000524520874,9.43000030517578,1.809999942779541,1.9700000286102293,45226015
1749119626035100743,-42.625,-7.9375,-39.9375,9.170000076293944,1.7000000476837158,1.399999976158142,9.40999984741211,1.909999966621399,1.9700000286102293,45226035
1749119626071174371,-46.6875,-17.0,-37.6875,9.420000076293944,1.3799999952316284,1.5,9.390000343322754,2.009999990463257,1.9600000381469729,45226071
1749119626091977920,-50.25,-20.625,-36.3125,9.829999923706056,1.3700000047683716,1.399999976158142,9.390000343322754,2.049999952316284,1.940000057220459,45226091
1749119626099084542,-52.0,-22.25,-30.9375,9.75,0.6700000166893005,1.659999966621399,9.369999885559082,2.150000095367432,1.8899999856948853,45226099
1749119626122303281,-48.75,-22.3125,-29.8125,9.65999984741211,0.6600000262260437,1.7999999523162842,9.369999885559082,2.180000066757202,1.870000004768372,45226122
1749119626131000830,-43.0625,-19.8125,-27.75,9.779999732971191,0.8199999928474426,1.9299999475479128,9.359999656677246,2.2799999713897705,1.8200000524520876,45226131
1749119626158231420,-39.4375,-17.0,-27.0625,9.850000381469728,0.8999999761581421,1.909999966621399,9.350000381469728,2.3399999141693115,1.7999999523162842,45226158
1749119626181933257,-37.5,-14.6875,-27.0625,9.8100004196167,0.8399999737739563,1.950000047683716,9.350000381469728,2.319999933242798,1.7899999618530271,45226181
1749119626202981346,-28.625,-7.5,-28.4375,9.770000457763672,1.2100000381469729,1.8200000524520876,9.359999656677246,2.299999952316284,1.7899999618530271,45226202
1749119626215127429,-27.375,-4.75,-29.0625,9.619999885559082,1.3200000524520874,1.7699999809265137,9.350000381469728,2.3299999237060547,1.7999999523162842,45226215
1749119626236007608,-24.125,0.5625,-30.75,9.890000343322754,1.7300000190734863,1.9600000381469729,9.3100004196167,2.450000047683716,1.8200000524520876,45226236
1749119626251897999,-23.4375,5.4375,-33.9375,9.699999809265137,2.180000066757202,2.2799999713897705,9.279999732971191,2.539999961853028,1.850000023841858,45226251
1749119626281020213,-22.3125,7.3125,-36.125,9.649999618530272,2.3399999141693115,2.2699999809265137,9.260000228881836,2.5899999141693115,1.870000004768372,45226281
1749119626295770054,-19.375,9.625,-40.25,9.489999771118164,2.470000028610229,2.0199999809265137,9.199999809265137,2.759999990463257,1.940000057220459,45226295
1749119626314891266,-17.9375,9.4375,-40.8125,9.5,2.740000009536743,1.9800000190734863,9.18000030517578,2.809999942779541,1.9700000286102293,45226314
1749119626335112995,-16.75,9.1875,-40.0625,9.199999809265137,2.680000066757202,1.950000047683716,9.109999656677246,2.9800000190734863,2.0299999713897705,45226335
1749119626351015537,-16.6875,7.875,-37.5625,8.979999542236328,2.4800000190734863,1.909999966621399,9.0600004196167,3.0899999141693115,2.0799999237060547,45226351
1749119626372291307,-15.9375,6.625,-36.1875,8.979999542236328,2.5299999713897705,1.940000057220459,9.039999961853027,3.140000104904175,2.0999999046325684,45226372
1749119626389890515,-10.5625,1.25,-29.9375,8.59000015258789,2.720000028610229,1.7300000190734863,8.989999771118164,3.2699999809265137,2.130000114440918,45226389
1749119626416128316,-10.1875,-0.4375,-27.1875,8.470000267028809,2.690000057220459,1.6399999856948853,8.970000267028809,3.309999942779541,2.140000104904175,45226416
1749119626432067319,-5.8125,-5.25,-16.8125,8.229999542236328,2.7699999809265137,1.7300000190734863,8.9399995803833,3.400000095367432,2.130000114440918,45226432
1749119626456028879,-6.0625,-7.375,-8.875,8.359999656677246,2.990000009536743,1.649999976158142,8.930000305175781,3.4200000762939453,2.119999885559082,45226456
1749119626471157682,-6.4375,-7.0,-4.9375,8.449999809265137,3.049999952316284,1.649999976158142,8.930000305175781,3.430000066757202,2.109999895095825,45226471
1749119626491086294,-6.125,-6.1875,3.8125,8.390000343322754,3.0899999141693115,1.830000042915344,8.9399995803833,3.4200000762939453,2.0899999141693115,45226491
1749119626550225688,-4.875,-6.5,6.5,8.390000343322754,3.1600000858306885,1.870000004768372,8.949999809265137,3.400000095367432,2.0899999141693115,45226550
1749119626564013055,-1.5,-7.0,11.5625,8.520000457763672,3.369999885559082,1.9800000190734863,8.970000267028809,3.359999895095825,2.059999942779541,45226564
1749119626571077281,-0.0625,-7.9375,12.5,8.640000343322754,3.619999885559082,2.069999933242798,8.989999771118164,3.319999933242798,2.039999961853028,45226571
1749119626586372357,0.4375,-8.5,12.875,8.720000267028809,3.690000057220459,2.130000114440918,9.0,3.299999952316284,2.0199999809265137,45226586
1749119626599980007,0.6875,-9.25,12.375,8.850000381469727,3.890000104904175,2.2799999713897705,9.029999732971191,3.240000009536743,1.9800000190734863,45226599
1749119626610959170,0.1875,-9.9375,12.125,8.890000343322754,3.9700000286102295,2.3399999141693115,9.039999961853027,3.220000028610229,1.9700000286102293,45226610
1749119626638198429,-3.25,-8.875,11.625,9.239999771118164,3.7100000381469727,2.549999952316284,9.06999969482422,3.1700000762939453,1.9299999475479128,45226638
1749119626653315646,-5.0625,-7.125,11.125,9.039999961853027,3.549999952316284,2.789999961853028,9.09000015258789,3.130000114440918,1.909999966621399,45226653
1749119626678880943,-5.375,-7.25,10.9375,8.899999618530273,3.440000057220459,2.680000066757202,9.100000381469728,3.109999895095825,1.899999976158142,45226678
1749119626692928009,-4.0,-9.8125,19.625,9.470000267028809,3.0799999237060547,2.069999933242798,9.130000114440918,3.039999961853028,1.870000004768372,45226692
1749119626716727684,-3.0,-10.1875,24.1875,9.09000015258789,2.400000095367432,1.919999957084656,9.140000343322754,3.0,1.850000023841858,45226716
1749119626733106191,2.875,-13.25,25.0625,8.59000015258789,2.4800000190734863,2.009999990463257,9.1899995803833,2.880000114440918,1.7999999523162842,45226733
1749119626759591866,3.5,-13.625,24.4375,9.510000228881836,3.440000057220459,2.049999952316284,9.229999542236328,2.799999952316284,1.75,45226759
1749119626771237270,-0.1875,-12.625,24.75,9.529999732971191,3.490000009536743,2.25,9.239999771118164,2.759999990463257,1.7300000190734863,45226771
1749119626797382464,4.0,-22.3125,24.4375,8.6899995803833,3.2100000381469727,1.6399999856948853,9.289999961853027,2.650000095367432,1.6399999856948853,45226797
1749119626810226899,7.3125,-21.8125,25.5625,8.970000267028809,2.9100000858306885,1.5800000429153442,9.3100004196167,2.609999895095825,1.6100000143051147,45226810
1749119626831933745,7.0,-13.0,29.8125,9.06999969482422,2.930000066757202,1.9700000286102293,9.359999656677246,2.4800000190734863,1.5199999809265137,45226831
1749119626857280056,-2.625,-14.0625,30.5625,9.359999656677246,2.7300000190734863,1.6299999952316284,9.390000343322754,2.390000104904175,1.4800000190734863,45226857
1749119626869385286,0.9375,-14.9375,29.625,9.369999885559082,2.740000009536743,1.600000023841858,9.399999618530272,2.3399999141693115,1.4600000381469729,45226869
1749119626895092511,14.375,-18.75,26.0625,9.789999961853027,2.8499999046325684,1.850000023841858,9.449999809265137,2.220000028610229,1.3600000143051147,45226895
1749119626909839093,13.25,-19.0625,24.9375,9.9399995803833,2.9100000858306885,1.9900000095367432,9.460000038146973,2.180000066757202,1.3200000524520874,45226909
1749119626930934049,4.75,-15.125,17.5625,10.020000457763672,2.9600000381469727,1.909999966621399,9.489999771118164,2.0899999141693115,1.2400000095367432,45226930
1749119626953225807,1.1875,-14.375,13.5625,9.670000076293944,2.8499999046325684,1.7100000381469729,9.510000228881836,2.039999961853028,1.190000057220459,45226953
1749119626970059835,0.9375,-14.25,12.625,9.479999542236328,2.5999999046325684,1.340000033378601,9.520000457763672,2.0199999809265137,1.159999966621399,45226970
1749119626996557751,-3.25,-13.125,13.0,9.350000381469728,2.130000114440918,1.2899999618530271,9.539999961853027,1.9600000381469729,1.100000023841858,45226996
1749119627020239113,-5.4375,-12.9375,13.25,9.18000030517578,2.0199999809265137,1.25,9.550000190734863,1.940000057220459,1.0800000429153442,45227020
1749119627033348225,-8.375,-16.0625,13.5,9.229999542236328,2.140000104904175,0.8999999761581421,9.56999969482422,1.870000004768372,1.0199999809265137,45227033
1749119627056029820,-10.125,-18.4375,13.5,9.460000038146973,1.8200000524520876,0.8299999833106995,9.579999923706056,1.8200000524520876,0.959999978542328,45227056
1749119627069230104,-10.5,-19.1875,13.75,9.5600004196167,1.909999966621399,0.7900000214576721,9.59000015258789,1.7999999523162842,0.9399999976158142,45227069
1749119627097161444,-11.125,-19.875,15.3125,9.630000114440918,1.8200000524520876,0.8399999737739563,9.609999656677246,1.7200000286102295,0.8500000238418579,45227097
1749119627110287214,-12.0625,-19.4375,15.375,9.65999984741211,1.7200000286102295,0.8600000143051147,9.619999885559082,1.690000057220459,0.8199999928474426,45227110
1749119627131909335,-12.1875,-18.8125,15.8125,9.529999732971191,1.5099999904632568,0.7599999904632568,9.640000343322754,1.6100000143051147,0.7400000095367432,45227131
1749119627156972612,-12.625,-19.1875,16.4375,9.510000228881836,1.2000000476837158,0.4699999988079071,9.649999618530272,1.559999942779541,0.6800000071525574,45227156
1749119627170730215,-11.8125,-19.3125,16.5625,9.529999732971191,1.7699999809265137,0.5799999833106995,9.65999984741211,1.5299999713897705,0.6600000262260437,45227170
1749119627196048862,-11.125,-19.4375,17.125,9.56999969482422,1.1299999952316284,0.4399999976158142,9.68000030517578,1.440000057220459,0.5699999928474426,45227196
1749119627210124973,-10.75,-19.375,17.0,9.630000114440918,1.2300000190734863,0.4699999988079071,9.68000030517578,1.409999966621399,0.5400000214576721,45227210
1749119627237873705,-8.6875,-18.3125,16.5,9.600000381469728,1.2799999713897705,0.3799999952316284,9.699999809265137,1.3300000429153442,0.449999988079071,45227237
1749119627252166623,-8.5,-17.3125,16.1875,9.640000343322754,1.0299999713897705,0.3100000023841858,9.710000038146973,1.2699999809265137,0.4000000059604645,45227252
1749119627274205054,-8.1875,-16.9375,16.25,9.68000030517578,0.949999988079071,0.2800000011920929,9.710000038146973,1.25,0.3700000047683716,45227274
1749119627295437696,-6.625,-15.375,15.1875,9.630000114440918,1.0399999618530271,0.3100000023841858,9.729999542236328,1.1699999570846558,0.3000000119209289,45227295
1749119627309522942,-6.0,-14.9375,14.3125,9.630000114440918,1.159999966621399,0.2899999916553497,9.729999542236328,1.1399999856948853,0.2800000011920929,45227309
1749119627330066671,-6.25,-14.5625,12.75,9.68000030517578,0.959999978542328,0.1400000005960464,9.739999771118164,1.100000023841858,0.2300000041723251,45227330
1749119627355265997,-6.875,-14.25,10.6875,9.710000038146973,0.8600000143051147,0.0,9.739999771118164,1.0399999618530271,0.1599999964237213,45227355
1749119627374012738,-6.75,-13.5625,9.75,9.720000267028809,0.75,-0.0099999997764825,9.75,1.0199999809265137,0.1400000005960464,45227374
1749119627401155926,-5.0625,-12.8125,7.5625,9.770000457763672,0.5699999928474426,-0.0700000002980232,9.75,0.9700000286102296,0.0799999982118606,45227401
1749119627416154213,-5.3125,-12.3125,7.1875,9.779999732971191,0.4799999892711639,-0.0900000035762786,9.75,0.959999978542328,0.0599999986588954,45227416
1749119627436003013,-3.1875,-11.125,5.5,9.81999969482422,0.2199999988079071,0.0,9.760000228881836,0.9300000071525574,0.0,45227436
1749119627464072991,0.0,-10.4375,5.5,9.739999771118164,0.2199999988079071,0.0,9.760000228881836,0.9100000262260436,-0.0199999995529651,45227464
1749119627487144655,1.75,-10.3125,5.625,9.779999732971191,0.1099999994039535,-0.1500000059604644,9.760000228881836,0.8999999761581421,-0.0399999991059303,45227487
1749119627499908554,8.3125,-9.75,5.8125,9.869999885559082,-0.0700000002980232,-0.5,9.760000228881836,0.8399999737739563,-0.1000000014901161,45227499
1749119627509111897,11.5,-10.4375,6.1875,9.859999656677246,0.2800000011920929,-0.5199999809265137,9.770000457763672,0.8299999833106995,-0.1199999973177909,45227509
1749119627533036486,24.5625,-10.25,7.125,9.989999771118164,0.3700000047683716,-0.7200000286102295,9.770000457763672,0.7900000214576721,-0.1800000071525573,45227533
1749119627552032717,31.9375,-9.4375,8.0,10.079999923706056,0.3100000023841858,-0.8799999952316284,9.770000457763672,0.7599999904632568,-0.2199999988079071,45227552
1749119627571842480,33.8125,-9.0,8.3125,10.09000015258789,0.3400000035762787,-0.9399999976158142,9.770000457763672,0.75,-0.2399999946355819,45227571
1749119627594064825,40.625,-6.3125,8.0,10.010000228881836,0.0299999993294477,-0.9800000190734864,9.770000457763672,0.699999988079071,-0.2899999916553497,45227594
1749119627617966861,42.4375,-5.375,7.1875,9.949999809265137,0.0,-0.959999978542328,9.770000457763672,0.6700000166893005,-0.3199999928474426,45227617
1749119627628995006,44.5,-5.4375,6.125,9.81999969482422,0.3600000143051147,-1.0399999618530271,9.770000457763672,0.6299999952316284,-0.3799999952316284,45227628
1749119627654984746,43.0,-2.8125,6.5625,9.899999618530272,0.6000000238418579,-0.8100000023841858,9.770000457763672,0.5799999833106995,-0.4199999868869781,45227654
1749119627673986404,41.8125,-1.6875,7.1875,9.81999969482422,0.6200000047683716,-0.7400000095367432,9.779999732971191,0.5600000023841858,-0.4300000071525574,45227673
1749119627698994824,39.4375,-0.25,8.5625,9.760000228881836,0.6700000166893005,-0.7400000095367432,9.779999732971191,0.5199999809265137,-0.4399999976158142,45227698
1749119627709187135,38.1875,0.5,9.125,9.770000457763672,0.6700000166893005,-0.75,9.779999732971191,0.5,-0.449999988079071,45227709
1749119627730931227,35.125,2.125,9.8125,9.729999542236328,0.6499999761581421,-0.5799999833106995,9.779999732971191,0.4699999988079071,-0.449999988079071,45227730
1749119627753924184,32.9375,2.4375,9.125,9.710000038146973,0.6399999856948853,-0.6700000166893005,9.779999732971191,0.4199999868869781,-0.449999988079071,45227753
1749119627778876194,31.0,2.5625,8.3125,9.779999732971191,0.6100000143051147,-0.6899999976158142,9.779999732971191,0.4000000059604645,-0.449999988079071,45227778
1749119627841064792,28.8125,3.5,7.625,9.920000076293944,0.5600000023841858,-0.6499999761581421,9.779999732971191,0.3700000047683716,-0.449999988079071,45227841
1749119627867038690,27.875,3.375,7.5,9.850000381469728,0.550000011920929,-0.5699999928474426,9.779999732971191,0.3499999940395355,-0.449999988079071,45227867
1749119627891166585,27.25,2.125,7.75,9.829999923706056,0.5099999904632568,-0.6700000166893005,9.789999961853027,0.3300000131130218,-0.4399999976158142,45227891
1749119627904124093,26.0,1.125,7.5625,9.880000114440918,0.5299999713897705,-0.75,9.789999961853027,0.2899999916553497,-0.449999988079071,45227904
1749119627904419433,24.9375,0.4375,7.625,9.859999656677246,0.550000011920929,-0.6800000071525574,9.789999961853027,0.2800000011920929,-0.4600000083446502,45227904
1749119627925199927,25.1875,0.75,7.8125,9.6899995803833,0.6499999761581421,-0.5699999928474426,9.789999961853027,0.2399999946355819,-0.4600000083446502,45227925
1749119627929874895,24.9375,1.25,7.9375,9.699999809265137,0.7200000286102295,-0.5099999904632568,9.789999961853027,0.2300000041723251,-0.4600000083446502,45227929
1749119627932797491,23.0625,1.4375,7.6875,9.699999809265137,0.6399999856948853,-0.4399999976158142,9.789999961853027,0.2199999988079071,-0.4600000083446502,45227932
1749119627955103501,22.4375,1.75,7.3125,9.65999984741211,0.699999988079071,-0.4000000059604645,9.789999961853027,0.2000000029802322,-0.449999988079071,45227955
1749119627972179769,21.6875,1.4375,7.75,9.56999969482422,0.8999999761581421,-0.3100000023841858,9.789999961853027,0.1899999976158142,-0.449999988079071,45227972
1749119627994241138,18.1875,0.9375,9.375,9.75,0.9800000190734864,-0.1700000017881393,9.789999961853027,0.1599999964237213,-0.4399999976158142,45227994
1749119628011095160,13.25,0.8125,10.375,9.720000267028809,1.0,-0.1400000005960464,9.789999961853027,0.1400000005960464,-0.4399999976158142,45228011
1749119628029891138,9.625,-0.4375,11.4375,9.68000030517578,1.0199999809265137,-0.1599999964237213,9.789999961853027,0.1299999952316284,-0.4399999976158142,45228029
1749119628055929296,7.1875,-1.6875,12.5625,9.6899995803833,0.800000011920929,-0.270000010728836,9.789999961853027,0.1299999952316284,-0.4300000071525574,45228055
1749119628070369172,6.0,-2.25,13.5625,9.739999771118164,0.550000011920929,-0.2399999946355819,9.789999961853027,0.1000000014901161,-0.4300000071525574,45228070
1749119628095785872,7.9375,-2.25,14.4375,9.739999771118164,0.6399999856948853,-0.270000010728836,9.789999961853027,0.0299999993294477,-0.4399999976158142,45228095
1749119628109319779,9.625,-1.75,14.9375,9.779999732971191,0.7699999809265137,-0.3100000023841858,9.789999961853027,0.0199999995529651,-0.4399999976158142,45228109
1749119628134326301,9.75,-0.875,14.5,9.760000228881836,0.7400000095367432,-0.3000000119209289,9.789999961853027,0.0099999997764825,-0.4399999976158142,45228134
1749119628155660614,10.5625,-0.25,13.6875,9.729999542236328,0.75,-0.4699999988079071,9.789999961853027,0.0,-0.4300000071525574,45228155
1749119628171954668,9.875,0.0,13.9375,9.760000228881836,0.8100000023841858,-0.6600000262260437,9.789999961853027,-0.0199999995529651,-0.4399999976158142,45228171
1749119628197186443,7.375,-0.1875,15.1875,9.890000343322754,0.8399999737739563,-0.6499999761581421,9.789999961853027,-0.0900000035762786,-0.4399999976158142,45228197
1749119628209959787,6.1875,-0.3125,15.875,9.869999885559082,0.9100000262260436,-0.6499999761581421,9.789999961853027,-0.0900000035762786,-0.4399999976158142,45228209
1749119628236755889,5.1875,-0.625,17.375,10.039999961853027,1.0,-0.7599999904632568,9.789999961853027,-0.0900000035762786,-0.4600000083446502,45228236
1749119628259882218,2.4375,0.1875,18.25,10.029999732971191,0.9399999976158142,-0.7300000190734863,9.789999961853027,-0.0900000035762786,-0.4699999988079071,45228259
1749119628272797340,-0.625,-0.875,18.3125,9.93000030517578,0.7900000214576721,-0.550000011920929,9.789999961853027,-0.0900000035762786,-0.4799999892711639,45228272
1749119628296430860,-3.375,-0.875,18.4375,10.119999885559082,0.550000011920929,-0.5400000214576721,9.789999961853027,-0.1400000005960464,-0.4900000095367431,45228296
1749119628340075136,-6.25,1.0625,17.4375,10.199999809265137,0.4000000059604645,-0.5400000214576721,9.789999961853027,-0.1700000017881393,-0.4900000095367431,45228340
1749119628349899076,-9.3125,2.1875,15.0625,10.34000015258789,0.0700000002980232,-0.4000000059604645,9.789999961853027,-0.2199999988079071,-0.4799999892711639,45228349
1749119628365658718,-12.0,2.5,11.8125,10.34000015258789,-0.0700000002980232,-0.4600000083446502,9.789999961853027,-0.270000010728836,-0.4699999988079071,45228365
1749119628371257359,-12.75,3.625,8.3125,10.300000190734863,-0.4199999868869781,-0.6600000262260437,9.789999961853027,-0.2800000011920929,-0.4600000083446502,45228371
1749119628396097903,-7.25,6.625,6.0625,10.350000381469728,-0.9800000190734864,-0.449999988079071,9.789999961853027,-0.3100000023841858,-0.4300000071525574,45228396
1749119628412004835,0.375,11.375,3.5625,10.260000228881836,-0.8799999952316284,-0.1700000017881393,9.789999961853027,-0.3199999928474426,-0.4099999964237213,45228412
1749119628430224978,4.25,17.125,-0.25,9.920000076293944,-0.5600000023841858,0.1500000059604644,9.789999961853027,-0.3199999928474426,-0.3600000143051147,45228430
1749119628453933322,5.6875,23.0625,-6.875,9.619999885559082,-0.209999993443489,0.3700000047683716,9.789999961853027,-0.3100000023841858,-0.2899999916553497,45228453
1749119628472169213,5.3125,30.0625,-16.4375,9.279999732971191,-0.0199999995529651,0.6499999761581421,9.800000190734863,-0.2599999904632568,-0.1899999976158142,45228472
1749119628497097876,5.3125,36.8125,-28.25,9.170000076293944,0.3700000047683716,0.949999988079071,9.800000190734863,-0.1800000071525573,-0.0700000002980232,45228497
1749119628522489904,2.875,44.9375,-41.875,9.15999984741211,0.4300000071525574,1.2300000190734863,9.800000190734863,-0.050000000745058,0.0599999986588954,45228522
1749119628541367409,1.6875,55.75,-56.5625,9.350000381469728,0.5799999833106995,1.4800000190734863,9.800000190734863,0.1099999994039535,0.2300000041723251,45228541
1749119628562089781,1.625,68.4375,-70.3125,9.670000076293944,0.5699999928474426,1.4600000381469729,9.789999961853027,0.3400000035762787,0.449999988079071,45228562
1749119628580121840,2.8125,80.6875,-82.8125,10.359999656677246,0.4600000083446502,1.649999976158142,9.760000228881836,0.6000000238418579,0.699999988079071,45228580
1749119628596208664,4.6875,87.6875,-91.8125,10.489999771118164,0.6100000143051147,1.4700000286102295,9.710000038146973,0.8999999761581421,0.9900000095367432,45228596
1749119628611028139,15.6875,82.6875,-93.125,10.68000030517578,0.9399999976158142,0.7900000214576721,9.640000343322754,1.2100000381469729,1.2599999904632568,45228611
1749119628631098121,14.0,66.0,-89.4375,10.5600004196167,1.090000033378601,0.800000011920929,9.56999969482422,1.5099999904632568,1.4800000190734863,45228631
1749119628658087236,1.6875,45.8125,-84.0625,10.350000381469728,1.850000023841858,1.190000057220459,9.489999771118164,1.7899999618530271,1.6399999856948853,45228658
1749119628682801654,-13.6875,30.375,-80.0,9.899999618530272,3.0899999141693115,1.399999976158142,9.420000076293944,2.039999961853028,1.7599999904632568,45228682
1749119628692213091,-41.5625,13.5,-76.5,9.899999618530272,2.200000047683716,1.2300000190734863,9.350000381469728,2.2699999809265137,1.840000033378601,45228692
1749119628711124062,-62.8125,0.3125,-70.125,9.789999961853027,1.7400000095367432,1.0700000524520874,9.300000190734863,2.450000047683716,1.899999976158142,45228711
1749119628730775461,-66.625,-6.8125,-63.875,9.09000015258789,0.7900000214576721,1.5399999618530271,9.239999771118164,2.619999885559082,1.940000057220459,45228730
1749119628754737405,-57.0625,-13.125,-59.625,8.850000381469727,0.959999978542328,2.119999885559082,9.199999809265137,2.7699999809265137,1.9600000381469729,45228754
1749119628771136376,-51.5,-18.1875,-58.1875,8.979999542236328,1.0,1.909999966621399,9.149999618530272,2.9100000858306885,1.950000047683716,45228771
1749119628790827285,-46.6875,-19.5625,-57.0625,9.109999656677246,0.9700000286102296,1.4299999475479126,9.109999656677246,3.059999942779541,1.940000057220459,45228790
1749119628813670947,-44.0625,-17.0,-56.25,9.0600004196167,0.949999988079071,1.090000033378601,9.0600004196167,3.200000047683716,1.9299999475479128,45228813
1749119628834953478,-36.75,-15.0,-53.75,8.970000267028809,1.399999976158142,1.0399999618530271,9.010000228881836,3.3399999141693115,1.9299999475479128,45228834
1749119628854133069,-28.1875,-13.1875,-49.0,9.0,2.0199999809265137,1.2599999904632568,8.960000038146973,3.4800000190734863,1.919999957084656,45228854
1749119628875032364,-24.4375,-11.8125,-44.6875,9.0,2.680000066757202,1.8899999856948853,8.90999984741211,3.5999999046325684,1.919999957084656,45228875
1749119628890893208,-27.4375,-9.625,-42.3125,8.920000076293945,2.609999895095825,2.009999990463257,8.869999885559082,3.7100000381469727,1.919999957084656,45228890
1749119628916700067,-25.625,-5.375,-38.125,9.149999618530272,2.9600000381469727,1.840000033378601,8.819999694824219,3.809999942779541,1.9299999475479128,45228916
1749119628929978364,-25.8125,-0.6875,-32.0625,8.800000190734863,2.720000028610229,1.909999966621399,8.779999732971191,3.890000104904175,1.9600000381469729,45228929
1749119628951857556,-20.0625,0.3125,-26.125,8.460000038146973,2.799999952316284,2.069999933242798,8.739999771118164,3.9600000381469727,1.9900000095367432,45228951
1749119628977081692,-15.75,0.5625,-19.625,8.300000190734863,2.8499999046325684,2.119999885559082,8.710000038146973,4.010000228881836,2.009999990463257,45228977
1749119628993911089,-11.4375,2.0,-10.625,8.130000114440918,3.109999895095825,2.1700000762939453,8.6899995803833,4.039999961853027,2.0299999713897705,45228993
1749119629021222591,-9.4375,-2.125,-2.5,7.739999771118164,3.3299999237060547,2.059999942779541,8.6899995803833,4.050000190734863,2.049999952316284,45229021
1749119629035432049,-8.5,-10.8125,4.0,7.230000019073486,3.7899999618530273,1.7300000190734863,8.699999809265137,4.03000020980835,2.0299999713897705,45229035
1749119629061041280,-6.0625,-22.9375,7.375,6.800000190734863,3.9600000381469727,1.5099999904632568,8.720000267028809,4.010000228881836,1.9800000190734863,45229061
1749119629108985937,-4.875,-37.5625,10.6875,7.130000114440918,4.670000076293945,1.1200000047683716,8.75,3.9800000190734863,1.8899999856948853,45229108
1749119629136013848,-12.25,-45.4375,17.125,8.010000228881836,5.090000152587891,1.1399999856948853,8.800000190734863,3.930000066757202,1.7699999809265137,45229136
1749119629140095584,-28.375,-45.375,23.25,8.960000038146973,5.150000095367432,2.0799999237060547,8.859999656677246,3.849999904632568,1.6699999570846558,45229140
1749119629147847797,-41.4375,-40.0,24.5625,9.520000457763672,4.980000019073486,3.0,8.90999984741211,3.75,1.590000033378601,45229147
1749119629148037251,-42.6875,-29.0625,20.0625,9.949999809265137,4.03000020980835,3.849999904632568,8.960000038146973,3.660000085830689,1.5499999523162842,45229148
1749119629174003538,-39.5,-15.0,11.25,9.770000457763672,3.75,3.940000057220459,8.979999542236328,3.5999999046325684,1.5399999618530271,45229174
1749119629199235754,-38.8125,-7.3125,4.75,9.170000076293944,3.7200000286102295,3.220000028610229,8.989999771118164,3.559999942779541,1.559999942779541,45229199
1749119629210172471,-43.8125,-11.625,7.4375,8.40999984741211,3.319999933242798,2.299999952316284,9.010000228881836,3.5199999809265137,1.590000033378601,45229210
1749119629230338644,-31.8125,-23.8125,18.3125,8.579999923706055,3.069999933242798,1.5700000524520874,9.039999961853027,3.450000047683716,1.5700000524520874,45229230
1749119629252732351,-14.9375,-29.5625,32.6875,8.449999809265137,2.109999895095825,0.8100000023841858,9.079999923706056,3.3499999046325684,1.5,45229252
1749119629277056057,-6.25,-34.75,42.25,8.75,1.7400000095367432,1.25,9.149999618530272,3.2300000190734863,1.409999966621399,45229277
1749119629289123053,-6.375,-39.375,45.4375,11.140000343322754,2.1700000762939453,2.4600000381469727,9.210000038146973,3.0799999237060547,1.2899999618530271,45229289
1749119629309125488,-9.0625,-31.6875,41.0,10.56999969482422,2.0799999237060547,2.799999952316284,9.270000457763672,2.950000047683716,1.2000000476837158,45229309
1749119629333060476,23.5625,-31.25,35.875,12.010000228881836,3.289999961853028,2.380000114440918,9.31999969482422,2.8399999141693115,1.0800000429153442,45229333
1749119629355051105,17.6875,-8.8125,32.375,11.789999961853027,3.0799999237060547,3.240000009536743,9.350000381469728,2.740000009536743,1.0099999904632568,45229355
1749119629376173100,6.5,-0.8125,24.3125,10.039999961853027,2.720000028610229,1.4900000095367432,9.380000114440918,2.6600000858306885,1.0,45229376
1749119629398884707,15.125,-14.125,15.875,9.239999771118164,2.7300000190734863,0.0,9.399999618530272,2.5999999046325684,0.959999978542328,45229398
1749119629412034611,22.875,-24.4375,18.25,8.600000381469727,1.4299999475479126,-0.4799999892711639,9.420000076293944,2.559999942779541,0.8700000047683716,45229412
1749119629435119261,21.25,-23.6875,27.5625,8.5600004196167,1.090000033378601,-0.2199999988079071,9.449999809265137,2.4800000190734863,0.7699999809265137,45229435
1749119629460105897,19.0,-23.125,31.75,8.6899995803833,1.3799999952316284,0.1500000059604644,9.479999542236328,2.390000104904175,0.6800000071525574,45229460
1749119629470958920,14.9375,-26.9375,31.6875,9.0600004196167,1.5199999809265137,0.0799999982118606,9.510000228881836,2.289999961853028,0.5899999737739563,45229470
1749119629502260768,6.4375,-29.125,30.25,9.630000114440918,1.059999942779541,0.0,9.539999961853027,2.190000057220459,0.4900000095367431,45229502
1749119629510256984,1.875,-26.3125,28.1875,9.770000457763672,0.8600000143051147,0.1199999973177909,9.5600004196167,2.0999999046325684,0.4000000059604645,45229510
1749119629530992313,4.5625,-21.1875,25.6875,9.84000015258789,0.4900000095367431,0.3600000143051147,9.59000015258789,2.0199999809265137,0.3199999928474426,45229530
1749119629555064093,9.0,-16.75,23.25,9.869999885559082,0.209999993443489,-0.0700000002980232,9.600000381469728,1.940000057220459,0.2599999904632568,45229555
1749119629573837186,15.6875,-13.75,20.5625,9.970000267028809,0.2899999916553497,-0.3499999940395355,9.619999885559082,1.870000004768372,0.2000000029802322,45229573
1749119629601285983,29.3125,-13.25,17.5625,10.050000190734863,0.4699999988079071,-0.5699999928474426,9.630000114440918,1.809999942779541,0.1400000005960464,45229601
1749119629610346002,42.4375,-14.375,15.5,10.100000381469728,0.7300000190734863,-0.7599999904632568,9.640000343322754,1.7599999904632568,0.0799999982118606,45229610
1749119629629133426,53.0625,-13.6875,13.9375,9.81999969482422,1.0099999904632568,-0.6399999856948853,9.649999618530272,1.7200000286102295,0.0,45229629
1749119629653986108,58.5,-12.125,12.625,9.760000228881836,1.1299999952316284,-0.5400000214576721,9.65999984741211,1.6699999570846558,-0.0599999986588954,45229653
1749119629670167327,56.125,-12.3125,11.375,9.539999961853027,1.2999999523162842,-0.8600000143051147,9.65999984741211,1.6299999952316284,-0.1400000005960464,45229670
1749119629691982732,46.375,-11.3125,11.75,9.460000038146973,1.2100000381469729,-0.9200000166893004,9.670000076293944,1.590000033378601,-0.2000000029802322,45229691
1749119629714989330,36.5,-9.75,13.1875,9.4399995803833,0.8100000023841858,-0.9200000166893004,9.670000076293944,1.5499999523162842,-0.2599999904632568,45229714
1749119629730055630,31.6875,-10.1875,15.4375,9.550000190734863,0.6100000143051147,-0.9100000262260436,9.68000030517578,1.5,-0.3000000119209289,45229730
1749119629754835941,30.75,-10.9375,18.1875,9.5600004196167,0.5699999928474426,-0.7699999809265137,9.6899995803833,1.4299999475479126,-0.3600000143051147,45229754
1749119629772227409,28.8125,-11.5625,20.3125,9.789999961853027,0.4600000083446502,-0.6399999856948853,9.699999809265137,1.3700000047683716,-0.4099999964237213,45229772
1749119629796206278,27.25,-10.875,21.3125,9.970000267028809,0.5799999833106995,-0.3499999940395355,9.699999809265137,1.2899999618530271,-0.4600000083446502,45229796
1749119629809836558,26.8125,-8.0,21.3125,9.890000343322754,0.8199999928474426,-0.2000000029802322,9.710000038146973,1.2200000286102295,-0.5,45229809
1749119629831891621,26.25,-6.125,19.9375,9.770000457763672,1.1799999475479126,-0.3000000119209289,9.720000267028809,1.149999976158142,-0.5299999713897705,45229831
1749119629860164045,24.75,-5.3125,17.0625,9.770000457763672,1.149999976158142,-0.4000000059604645,9.720000267028809,1.0800000429153442,-0.5600000023841858,45229860
1749119629868943651,26.875,-4.5,14.1875,9.800000190734863,1.0299999713897705,-0.5,9.729999542236328,1.0299999713897705,-0.5799999833106995,45229868
1749119629894891287,30.5625,-3.125,12.125,9.850000381469728,1.1699999570846558,-0.6000000238418579,9.729999542236328,0.9800000190734864,-0.6000000238418579,45229894
