timestamp_ns,wx,wy,wz,ax,ay,az,gx,gy,gz,time_ms_loc
1749119614613155004,-0.1875,0.25,-1.5625,9.8100004196167,-0.3899999856948852,0.3100000023841858,9.800000190734863,-0.1899999976158142,0.0,45214613
1749119614627222699,-0.5,0.375,-1.4375,9.800000190734863,-0.3600000143051147,0.1099999994039535,9.800000190734863,-0.1800000071525573,0.0,45214627
1749119614653996288,-0.375,0.25,-1.6875,9.8100004196167,-0.3400000035762787,0.0399999991059303,9.800000190734863,-0.1800000071525573,0.0,45214653
1749119614665942684,0.0625,-0.1875,-1.5,9.779999732971191,-0.3499999940395355,0.0700000002980232,9.800000190734863,-0.1800000071525573,0.0,45214665
1749119614686015717,-0.125,-0.5625,-1.6875,9.8100004196167,-0.4099999964237213,0.1000000014901161,9.800000190734863,-0.1800000071525573,0.0,45214686
1749119614698951241,0.0,-0.25,-1.8125,9.81999969482422,-0.3899999856948852,0.1599999964237213,9.800000190734863,-0.1700000017881393,0.0,45214698
1749119614722104747,0.25,0.1875,-1.8125,9.760000228881836,-0.4099999964237213,0.2399999946355819,9.800000190734863,-0.1700000017881393,0.0,45214722
1749119614736852333,0.9375,0.0625,-1.6875,9.739999771118164,-0.4300000071525574,0.2000000029802322,9.800000190734863,-0.1700000017881393,0.0,45214736
1749119614762123186,1.4375,0.125,-1.8125,9.789999961853027,-0.4600000083446502,0.1599999964237213,9.800000190734863,-0.1700000017881393,0.0099999997764825,45214762
1749119614787069038,1.4375,-0.1875,-1.6875,9.8100004196167,-0.4399999976158142,0.2199999988079071,9.800000190734863,-0.1700000017881393,0.0199999995529651,45214787
1749119614821383542,1.5,-0.375,-1.875,9.800000190734863,-0.4399999976158142,0.2399999946355819,9.800000190734863,-0.1700000017881393,0.0199999995529651,45214821
1749119614848067112,2.125,-0.4375,-1.75,9.829999923706056,-0.4000000059604645,0.2599999904632568,9.800000190734863,-0.1700000017881393,0.0199999995529651,45214848
1749119614870110110,2.375,-0.4375,-1.625,9.8100004196167,-0.4000000059604645,0.2800000011920929,9.800000190734863,-0.1700000017881393,0.0299999993294477,45214870
1749119614877462954,2.375,-0.375,-1.125,9.84000015258789,-0.4600000083446502,0.2800000011920929,9.800000190734863,-0.1700000017881393,0.0399999991059303,45214877
1749119614894828331,2.0625,-0.1875,-0.875,9.8100004196167,-0.4699999988079071,0.2800000011920929,9.800000190734863,-0.1800000071525573,0.0399999991059303,45214894
1749119614910435739,2.3125,-0.125,-0.75,9.770000457763672,-0.4600000083446502,0.2800000011920929,9.800000190734863,-0.1800000071525573,0.0399999991059303,45214910
1749119614919949502,2.5625,-0.1875,-0.8125,9.779999732971191,-0.3600000143051147,0.25,9.800000190734863,-0.1800000071525573,0.050000000745058,45214919
1749119614940238236,2.625,-0.3125,-0.6875,9.8100004196167,-0.3499999940395355,0.2199999988079071,9.800000190734863,-0.1800000071525573,0.050000000745058,45214940
1749119614960975402,1.875,-0.375,-0.5,9.81999969482422,-0.3100000023841858,0.2000000029802322,9.800000190734863,-0.1899999976158142,0.0599999986588954,45214960
1749119614980165223,1.9375,-0.375,-0.5625,9.760000228881836,-0.2800000011920929,0.2000000029802322,9.800000190734863,-0.1899999976158142,0.0599999986588954,45214980
1749119614999954990,2.125,-0.5,-0.6875,9.8100004196167,-0.3000000119209289,0.1800000071525573,9.800000190734863,-0.1899999976158142,0.0599999986588954,45214999
1749119615024939191,1.6875,-0.5,-0.9375,9.779999732971191,-0.25,0.1899999976158142,9.800000190734863,-0.1800000071525573,0.0599999986588954,45215024
1749119615042160171,1.4375,-0.4375,-1.125,9.770000457763672,-0.2599999904632568,0.1599999964237213,9.800000190734863,-0.1800000071525573,0.0599999986588954,45215042
1749119615059103659,0.8125,-0.5,-1.0625,9.779999732971191,-0.2599999904632568,0.209999993443489,9.800000190734863,-0.1800000071525573,0.0599999986588954,45215059
1749119615081963430,0.3125,-0.8125,-1.125,9.789999961853027,-0.2899999916553497,0.25,9.800000190734863,-0.1800000071525573,0.0599999986588954,45215081
1749119615107059920,-0.5,-0.5,-0.875,9.8100004196167,-0.3700000047683716,0.2599999904632568,9.800000190734863,-0.1800000071525573,0.0599999986588954,45215107
1749119615118900983,-0.4375,-0.5,-1.0,9.800000190734863,-0.4000000059604645,0.2199999988079071,9.800000190734863,-0.1700000017881393,0.0700000002980232,45215118
1749119615155052183,-0.25,-0.5,-1.0,9.789999961853027,-0.3899999856948852,0.209999993443489,9.800000190734863,-0.1800000071525573,0.0700000002980232,45215155
1749119615159011222,0.125,-0.5,-1.125,9.789999961853027,-0.3700000047683716,0.209999993443489,9.800000190734863,-0.1800000071525573,0.0700000002980232,45215159
1749119615180842351,-0.0625,-0.6875,-1.0,9.800000190734863,-0.3799999952316284,0.209999993443489,9.800000190734863,-0.1800000071525573,0.0700000002980232,45215180
1749119615199300622,0.4375,-0.75,-0.875,9.829999923706056,-0.3899999856948852,0.25,9.800000190734863,-0.1800000071525573,0.0700000002980232,45215199
1749119615219915238,0.0,-0.75,-0.8125,9.81999969482422,-0.3799999952316284,0.2599999904632568,9.800000190734863,-0.1800000071525573,0.0700000002980232,45215219
1749119615240080358,-0.4375,-0.5625,-1.0,9.800000190734863,-0.3899999856948852,0.2399999946355819,9.800000190734863,-0.1800000071525573,0.0799999982118606,45215240
1749119615264612387,-0.75,-0.5,-0.9375,9.8100004196167,-0.3700000047683716,0.1800000071525573,9.800000190734863,-0.1800000071525573,0.0799999982118606,45215264
1749119615280350154,-0.75,-0.4375,-1.0,9.789999961853027,-0.4000000059604645,0.1899999976158142,9.800000190734863,-0.1800000071525573,0.0799999982118606,45215280
1749119615305084301,-0.25,-0.6875,-0.875,9.800000190734863,-0.3799999952316284,0.1700000017881393,9.800000190734863,-0.1800000071525573,0.0799999982118606,45215305
1749119615320270222,0.0,-0.625,-0.875,9.789999961853027,-0.3799999952316284,0.1700000017881393,9.800000190734863,-0.1800000071525573,0.0799999982118606,45215320
1749119615345306910,-0.25,-0.75,-0.9375,9.800000190734863,-0.3600000143051147,0.1899999976158142,9.800000190734863,-0.1800000071525573,0.0799999982118606,45215345
1749119615365761252,-0.1875,-0.8125,-0.75,9.829999923706056,-0.3499999940395355,0.2000000029802322,9.800000190734863,-0.1800000071525573,0.0799999982118606,45215365
1749119615391825507,-0.4375,-0.5625,-0.6875,9.789999961853027,-0.3400000035762787,0.25,9.800000190734863,-0.1800000071525573,0.0799999982118606,45215391
1749119615416899345,-0.75,-0.5,-0.8125,9.8100004196167,-0.3700000047683716,0.2399999946355819,9.800000190734863,-0.1800000071525573,0.0799999982118606,45215416
1749119615443110183,-0.6875,-0.5625,-0.75,9.789999961853027,-0.3799999952316284,0.1899999976158142,9.800000190734863,-0.1800000071525573,0.0799999982118606,45215443
1749119615473993582,-0.25,-0.5625,-0.5,9.789999961853027,-0.3899999856948852,0.209999993443489,9.800000190734863,-0.1800000071525573,0.0900000035762786,45215473
1749119615477890759,0.375,-0.6875,-0.6875,9.8100004196167,-0.3499999940395355,0.1800000071525573,9.800000190734863,-0.1899999976158142,0.0900000035762786,45215477
1749119615490833939,0.375,-0.5,-0.875,9.829999923706056,-0.3600000143051147,0.2399999946355819,9.800000190734863,-0.1899999976158142,0.0900000035762786,45215490
1749119615500270451,0.3125,-0.5,-0.6875,9.8100004196167,-0.3700000047683716,0.2300000041723251,9.800000190734863,-0.1899999976158142,0.0900000035762786,45215500
1749119615520167606,0.3125,-0.5625,-0.3125,9.8100004196167,-0.3600000143051147,0.1899999976158142,9.800000190734863,-0.1899999976158142,0.0900000035762786,45215520
1749119615539990633,0.3125,-0.5,-0.25,9.8100004196167,-0.3600000143051147,0.209999993443489,9.800000190734863,-0.1899999976158142,0.0900000035762786,45215539
1749119615584682769,0.3125,-0.3125,0.0,9.789999961853027,-0.2899999916553497,0.1800000071525573,9.800000190734863,-0.1899999976158142,0.0900000035762786,45215584
1749119615596160977,-0.1875,-0.5625,-0.1875,9.829999923706056,-0.2800000011920929,0.1700000017881393,9.800000190734863,-0.1899999976158142,0.1000000014901161,45215596
1749119615602893702,-0.25,-0.375,-0.0625,9.800000190734863,-0.2800000011920929,0.1800000071525573,9.800000190734863,-0.1899999976158142,0.1000000014901161,45215602
1749119615620958593,-0.1875,-0.5,-0.3125,9.789999961853027,-0.2300000041723251,0.1500000059604644,9.800000190734863,-0.1899999976158142,0.1000000014901161,45215620
1749119615639868656,-0.75,-0.375,-0.8125,9.789999961853027,-0.2399999946355819,0.1599999964237213,9.800000190734863,-0.1899999976158142,0.1000000014901161,45215639
1749119615658989986,-1.1875,-0.4375,-0.625,9.779999732971191,-0.2800000011920929,0.1500000059604644,9.800000190734863,-0.1899999976158142,0.1000000014901161,45215658
1749119615685747725,-1.0625,-0.4375,-0.6875,9.789999961853027,-0.270000010728836,0.1599999964237213,9.800000190734863,-0.1899999976158142,0.1000000014901161,45215685
1749119615700112072,-1.3125,-0.375,-0.625,9.800000190734863,-0.3000000119209289,0.2199999988079071,9.800000190734863,-0.1899999976158142,0.1000000014901161,45215700
1749119615724157083,-1.1875,-0.1875,-0.625,9.8100004196167,-0.3600000143051147,0.209999993443489,9.800000190734863,-0.1899999976158142,0.1000000014901161,45215724
1749119615740787782,-0.8125,-0.25,-0.625,9.789999961853027,-0.3899999856948852,0.1700000017881393,9.800000190734863,-0.1899999976158142,0.1000000014901161,45215740
1749119615760112969,-0.4375,-0.3125,-0.5,9.800000190734863,-0.3499999940395355,0.1500000059604644,9.800000190734863,-0.1899999976158142,0.1000000014901161,45215760
1749119615785178734,-0.125,-0.375,-0.5625,9.800000190734863,-0.3499999940395355,0.2000000029802322,9.800000190734863,-0.1899999976158142,0.1000000014901161,45215785
1749119615805970302,0.0625,-0.5625,-0.375,9.789999961853027,-0.3700000047683716,0.1899999976158142,9.800000190734863,-0.1899999976158142,0.1000000014901161,45215805
1749119615819220498,0.125,-0.5625,-0.0625,9.8100004196167,-0.3600000143051147,0.1899999976158142,9.800000190734863,-0.2000000029802322,0.1000000014901161,45215819
1749119615838835510,0.25,-0.25,-0.1875,9.81999969482422,-0.3400000035762787,0.2399999946355819,9.800000190734863,-0.2000000029802322,0.1099999994039535,45215838
1749119615864051849,0.25,-0.3125,-0.1875,9.779999732971191,-0.3400000035762787,0.1800000071525573,9.800000190734863,-0.2000000029802322,0.1099999994039535,45215864
1749119615889178378,0.375,-0.375,-0.25,9.770000457763672,-0.3300000131130218,0.1599999964237213,9.800000190734863,-0.2000000029802322,0.1099999994039535,45215889
1749119615898786560,0.75,-0.5,-0.1875,9.800000190734863,-0.3400000035762787,0.1899999976158142,9.800000190734863,-0.2000000029802322,0.1099999994039535,45215898
1749119615924091782,0.5,-0.375,-0.25,9.81999969482422,-0.3100000023841858,0.2300000041723251,9.800000190734863,-0.2000000029802322,0.1099999994039535,45215924
1749119615939933258,0.1875,-0.5,0.0,9.800000190734863,-0.3100000023841858,0.2199999988079071,9.800000190734863,-0.209999993443489,0.1099999994039535,45215939
1749119615962267148,0.25,-0.1875,-0.125,9.8100004196167,-0.3199999928474426,0.1800000071525573,9.800000190734863,-0.209999993443489,0.1099999994039535,45215962
1749119615987993123,-0.0625,-0.25,-0.375,9.800000190734863,-0.3199999928474426,0.1800000071525573,9.800000190734863,-0.209999993443489,0.1099999994039535,45215987
1749119615999448566,0.25,-0.1875,-0.5625,9.760000228881836,-0.3300000131130218,0.1299999952316284,9.800000190734863,-0.209999993443489,0.1099999994039535,45215999
1749119616020207794,0.125,-0.5,-0.375,9.779999732971191,-0.3400000035762787,0.1599999964237213,9.800000190734863,-0.209999993443489,0.1099999994039535,45216020
1749119616038112018,0.3125,-0.5,-0.5625,9.779999732971191,-0.3300000131130218,0.2199999988079071,9.800000190734863,-0.209999993443489,0.1099999994039535,45216038
1749119616058110238,0.25,-0.3125,-0.6875,9.800000190734863,-0.3400000035762787,0.2199999988079071,9.800000190734863,-0.209999993443489,0.1199999973177909,45216058
1749119616079359452,-0.0625,-0.25,-0.625,9.800000190734863,-0.3400000035762787,0.2300000041723251,9.800000190734863,-0.209999993443489,0.1199999973177909,45216079
1749119616099849065,-0.3125,-0.25,-0.625,9.789999961853027,-0.3499999940395355,0.2000000029802322,9.800000190734863,-0.209999993443489,0.1199999973177909,45216099
1749119616126207674,0.0625,-0.4375,-0.5,9.800000190734863,-0.3600000143051147,0.209999993443489,9.800000190734863,-0.209999993443489,0.1199999973177909,45216126
1749119616144294906,-0.25,-0.3125,-0.375,9.8100004196167,-0.3600000143051147,0.209999993443489,9.800000190734863,-0.209999993443489,0.1199999973177909,45216144
1749119616159039343,-0.25,-0.375,-0.25,9.81999969482422,-0.3499999940395355,0.209999993443489,9.800000190734863,-0.2199999988079071,0.1199999973177909,45216159
1749119616179267452,-0.1875,-0.375,-0.3125,9.770000457763672,-0.3499999940395355,0.209999993443489,9.800000190734863,-0.2199999988079071,0.1199999973177909,45216179
1749119616200279956,-0.375,-0.25,-0.375,9.75,-0.3700000047683716,0.2000000029802322,9.800000190734863,-0.2199999988079071,0.1199999973177909,45216200
1749119616220127709,-0.1875,-0.375,-0.375,9.760000228881836,-0.3400000035762787,0.209999993443489,9.800000190734863,-0.2199999988079071,0.1199999973177909,45216220
1749119616242700242,0.0625,-0.3125,-0.5,9.800000190734863,-0.3700000047683716,0.1899999976158142,9.800000190734863,-0.2199999988079071,0.1299999952316284,45216242
1749119616266967150,0.4375,-0.3125,-0.625,9.800000190734863,-0.4199999868869781,0.1400000005960464,9.800000190734863,-0.2199999988079071,0.1299999952316284,45216266
1749119616288200564,1.1875,-0.1875,-0.6875,9.81999969482422,-0.4300000071525574,0.1700000017881393,9.800000190734863,-0.2199999988079071,0.1299999952316284,45216288
1749119616311504537,1.75,-0.125,-0.75,9.8100004196167,-0.4300000071525574,0.1599999964237213,9.800000190734863,-0.2199999988079071,0.1299999952316284,45216311
1749119616319283454,2.1875,-0.375,-0.875,9.789999961853027,-0.3100000023841858,0.1899999976158142,9.800000190734863,-0.2199999988079071,0.1299999952316284,45216319
1749119616336230030,1.875,-0.5625,-0.6875,9.789999961853027,-0.3000000119209289,0.209999993443489,9.800000190734863,-0.2199999988079071,0.1299999952316284,45216336
1749119616361264851,0.4375,-0.5625,-0.625,9.800000190734863,-0.25,0.2399999946355819,9.800000190734863,-0.2199999988079071,0.1299999952316284,45216361
1749119616387031260,-0.4375,-0.1875,-0.5,9.8100004196167,-0.2199999988079071,0.2000000029802322,9.800000190734863,-0.2199999988079071,0.1299999952316284,45216387
1749119616400201815,-0.9375,-0.3125,-0.5,9.8100004196167,-0.209999993443489,0.2199999988079071,9.800000190734863,-0.2199999988079071,0.1299999952316284,45216400
1749119616418861153,-1.4375,-0.125,-0.625,9.760000228881836,-0.25,0.209999993443489,9.800000190734863,-0.2199999988079071,0.1299999952316284,45216418
1749119616444099752,-1.75,-0.3125,-0.6875,9.770000457763672,-0.2399999946355819,0.209999993443489,9.800000190734863,-0.2199999988079071,0.1299999952316284,45216444
1749119616459327308,-2.125,-0.6875,-1.0,9.779999732971191,-0.3400000035762787,0.1800000071525573,9.800000190734863,-0.209999993443489,0.1299999952316284,45216459
1749119616481049356,-1.4375,-0.875,-1.1875,9.8100004196167,-0.4300000071525574,0.2300000041723251,9.800000190734863,-0.209999993443489,0.1299999952316284,45216481
1749119616502162576,-0.5625,-0.9375,-1.125,9.8100004196167,-0.4099999964237213,0.2300000041723251,9.800000190734863,-0.209999993443489,0.1299999952316284,45216502
1749119616520202293,-0.125,-0.5625,-1.0,9.800000190734863,-0.4000000059604645,0.2300000041723251,9.800000190734863,-0.209999993443489,0.1299999952316284,45216520
1749119616546095015,0.0,-0.375,-0.8125,9.800000190734863,-0.4099999964237213,0.209999993443489,9.800000190734863,-0.209999993443489,0.1299999952316284,45216546
1749119616560448467,0.375,-0.25,-0.8125,9.800000190734863,-0.449999988079071,0.1400000005960464,9.800000190734863,-0.2000000029802322,0.1299999952316284,45216560
1749119616579977075,1.25,-0.25,-0.8125,9.84000015258789,-0.3899999856948852,0.1599999964237213,9.800000190734863,-0.2000000029802322,0.1299999952316284,45216579
1749119616597095739,1.375,-0.1875,-0.6875,9.829999923706056,-0.3799999952316284,0.1800000071525573,9.800000190734863,-0.2000000029802322,0.1299999952316284,45216597
1749119616637220336,1.5625,0.0625,-0.4375,9.800000190734863,-0.3100000023841858,0.209999993443489,9.800000190734863,-0.2000000029802322,0.1299999952316284,45216637
1749119616647195849,1.0625,0.0,-0.5625,9.779999732971191,-0.270000010728836,0.2300000041723251,9.800000190734863,-0.2000000029802322,0.1299999952316284,45216647
1749119616659944726,0.5,0.25,-0.625,9.789999961853027,-0.2599999904632568,0.209999993443489,9.800000190734863,-0.2000000029802322,0.1299999952316284,45216659
1749119616680770231,0.0625,0.25,-0.6875,9.8100004196167,-0.209999993443489,0.2300000041723251,9.800000190734863,-0.2000000029802322,0.1299999952316284,45216680
1749119616699070067,-0.5,0.25,-0.375,9.800000190734863,-0.2000000029802322,0.209999993443489,9.800000190734863,-0.2000000029802322,0.1299999952316284,45216699
1749119616720022869,-0.625,0.375,-0.6875,9.789999961853027,-0.2199999988079071,0.2300000041723251,9.800000190734863,-0.1899999976158142,0.1299999952316284,45216720
1749119616739162992,-1.0625,0.375,-0.75,9.770000457763672,-0.25,0.2399999946355819,9.800000190734863,-0.1899999976158142,0.1299999952316284,45216739
1749119616761196549,-1.4375,0.125,-1.125,9.770000457763672,-0.2300000041723251,0.2599999904632568,9.800000190734863,-0.1899999976158142,0.1299999952316284,45216761
1749119616782184140,-2.0,0.3125,-1.3125,9.789999961853027,-0.2399999946355819,0.2399999946355819,9.800000190734863,-0.1800000071525573,0.1299999952316284,45216782
1749119616798156144,-1.9375,0.3125,-1.4375,9.779999732971191,-0.2599999904632568,0.270000010728836,9.800000190734863,-0.1800000071525573,0.1299999952316284,45216798
1749119616819077765,-3.0,0.5625,-1.625,9.8100004196167,-0.3000000119209289,0.2199999988079071,9.800000190734863,-0.1700000017881393,0.1299999952316284,45216819
1749119616869174046,-3.4375,0.75,-1.8125,9.8100004196167,-0.3400000035762787,0.209999993443489,9.800000190734863,-0.1700000017881393,0.1299999952316284,45216869
1749119616911209267,-3.3125,0.25,-1.6875,9.75,-0.4099999964237213,0.1700000017881393,9.800000190734863,-0.1599999964237213,0.1299999952316284,45216911
1749119616920035117,-3.0625,0.0,-1.9375,9.75,-0.5,0.2199999988079071,9.800000190734863,-0.1599999964237213,0.1299999952316284,45216920
1749119616932108883,-2.0,-0.125,-2.125,9.770000457763672,-0.5299999713897705,0.270000010728836,9.800000190734863,-0.1599999964237213,0.1299999952316284,45216932
1749119616947096535,-0.8125,-0.625,-2.125,9.84000015258789,-0.5799999833106995,0.2800000011920929,9.800000190734863,-0.1599999964237213,0.1400000005960464,45216947
1749119616950068141,-0.125,-0.625,-2.1875,9.8100004196167,-0.5699999928474426,0.270000010728836,9.800000190734863,-0.1700000017881393,0.1400000005960464,45216950
1749119616957176793,1.3125,-0.75,-2.25,9.850000381469728,-0.6000000238418579,0.3000000119209289,9.800000190734863,-0.1700000017881393,0.1400000005960464,45216957
1749119616980127600,1.9375,-0.625,-2.25,9.829999923706056,-0.5899999737739563,0.3000000119209289,9.800000190734863,-0.1800000071525573,0.1400000005960464,45216980
1749119617005368298,2.5625,-0.5625,-2.25,9.81999969482422,-0.5899999737739563,0.25,9.800000190734863,-0.1800000071525573,0.1500000059604644,45217005
1749119617020955697,3.125,-0.625,-2.1875,9.8100004196167,-0.5600000023841858,0.25,9.800000190734863,-0.1899999976158142,0.1500000059604644,45217020
1749119617039189159,3.3125,-0.625,-2.125,9.8100004196167,-0.550000011920929,0.209999993443489,9.800000190734863,-0.1899999976158142,0.1500000059604644,45217039
1749119617059149902,4.625,-0.5625,-2.0625,9.8100004196167,-0.5,0.209999993443489,9.800000190734863,-0.1899999976158142,0.1500000059604644,45217059
1749119617076996800,5.3125,-0.5,-1.875,9.800000190734863,-0.4199999868869781,0.2399999946355819,9.800000190734863,-0.1899999976158142,0.1500000059604644,45217076
1749119617099098638,5.5625,-0.625,-2.0,9.84000015258789,-0.3199999928474426,0.2199999988079071,9.800000190734863,-0.1899999976158142,0.1500000059604644,45217099
1749119617125858898,5.5625,-0.8125,-1.875,9.770000457763672,-0.1800000071525573,0.2599999904632568,9.800000190734863,-0.1800000071525573,0.1500000059604644,45217125
1749119617137720183,4.75,-0.875,-1.625,9.720000267028809,-0.0799999982118606,0.3000000119209289,9.800000190734863,-0.1800000071525573,0.1500000059604644,45217137
1749119617161946479,4.125,-1.1875,-1.625,9.68000030517578,0.1199999973177909,0.3700000047683716,9.800000190734863,-0.1700000017881393,0.1500000059604644,45217161
1749119617185102614,3.3125,-1.625,-2.0625,9.720000267028809,0.2599999904632568,0.4600000083446502,9.800000190734863,-0.1700000017881393,0.1400000005960464,45217185
1749119617198114527,2.6875,-1.625,-2.375,9.760000228881836,0.3100000023841858,0.5099999904632568,9.800000190734863,-0.1599999964237213,0.1400000005960464,45217198
1749119617219974426,-1.125,-1.6875,-3.125,9.800000190734863,0.3199999928474426,0.449999988079071,9.800000190734863,-0.1500000059604644,0.1299999952316284,45217219
1749119617257047448,-2.4375,-1.5625,-3.0625,9.81999969482422,0.270000010728836,0.4199999868869781,9.800000190734863,-0.1199999973177909,0.1400000005960464,45217257
1749119617273073552,-4.1875,-1.75,-2.25,9.8100004196167,0.3000000119209289,0.4399999976158142,9.800000190734863,-0.1000000014901161,0.1400000005960464,45217273
1749119617278965126,-7.3125,-1.9375,-1.3125,9.779999732971191,0.3499999940395355,0.4699999988079071,9.800000190734863,-0.0900000035762786,0.1400000005960464,45217278
1749119617297375595,-11.125,-1.75,-0.5625,9.869999885559082,0.4799999892711639,0.3600000143051147,9.800000190734863,-0.0700000002980232,0.1400000005960464,45217297
1749119617318914171,-14.6875,-1.375,0.125,9.880000114440918,0.4900000095367431,0.3100000023841858,9.800000190734863,-0.050000000745058,0.1400000005960464,45217318
1749119617338933908,-19.1875,-0.8125,0.8125,9.869999885559082,0.449999988079071,0.2899999916553497,9.800000190734863,-0.0399999991059303,0.1500000059604644,45217338
1749119617365909532,-23.5,-0.5,1.25,9.84000015258789,0.4199999868869781,0.1800000071525573,9.800000190734863,-0.0299999993294477,0.1500000059604644,45217365
1749119617380000432,-26.5,0.0,1.3125,9.789999961853027,0.3199999928474426,0.1400000005960464,9.800000190734863,-0.0199999995529651,0.1500000059604644,45217380
1749119617397010420,-29.6875,-0.3125,1.0625,9.890000343322754,0.1800000071525573,0.0199999995529651,9.800000190734863,-0.0199999995529651,0.1500000059604644,45217397
1749119617418840748,-32.9375,0.8125,0.3125,9.93000030517578,0.1899999976158142,-0.050000000745058,9.800000190734863,-0.0199999995529651,0.1500000059604644,45217418
1749119617443996791,-35.25,-2.625,-2.75,10.1899995803833,-0.0700000002980232,-0.2800000011920929,9.800000190734863,-0.0199999995529651,0.1400000005960464,45217443
1749119617456749684,-48.625,5.625,0.625,9.5600004196167,-1.2100000381469729,0.0,9.800000190734863,-0.0099999997764825,0.1500000059604644,45217456
1749119617479765656,-20.1875,-0.6875,0.6875,9.869999885559082,-0.6600000262260437,0.2300000041723251,9.800000190734863,-0.0199999995529651,0.1599999964237213,45217479
1749119617505157019,-31.0,0.8125,0.5625,9.640000343322754,-0.7400000095367432,-0.0900000035762786,9.800000190734863,-0.0199999995529651,0.1599999964237213,45217505
1749119617520035738,-25.5625,1.9375,-0.5625,9.970000267028809,-0.3499999940395355,-0.050000000745058,9.800000190734863,-0.0199999995529651,0.1599999964237213,45217520
1749119617547227483,-25.125,1.875,-2.5,9.829999923706056,-0.6000000238418579,0.0199999995529651,9.800000190734863,-0.0199999995529651,0.1700000017881393,45217547
1749119617557395559,-24.1875,2.5625,-1.375,10.220000267028809,-0.270000010728836,0.2199999988079071,9.800000190734863,-0.0199999995529651,0.1800000071525573,45217557
1749119617585243978,-26.5625,3.625,-1.0625,9.619999885559082,-1.090000033378601,-0.1299999952316284,9.800000190734863,-0.050000000745058,0.1700000017881393,45217585
1749119617598640588,-16.4375,1.5625,0.5625,10.09000015258789,-0.7799999713897705,-0.0900000035762786,9.800000190734863,-0.0599999986588954,0.1700000017881393,45217598
1749119617618223361,-11.0625,1.5,0.0,9.649999618530272,-0.959999978542328,0.3799999952316284,9.800000190734863,-0.0599999986588954,0.1800000071525573,45217618
1749119617639878813,-11.6875,3.125,1.0,9.90999984741211,-0.4900000095367431,0.2000000029802322,9.800000190734863,-0.0700000002980232,0.1899999976158142,45217639
1749119617663000349,-8.3125,5.1875,1.0,9.699999809265137,-0.8700000047683716,0.949999988079071,9.800000190734863,-0.0700000002980232,0.2000000029802322,45217663
1749119617686025073,-2.5625,-0.3125,0.3125,9.850000381469728,-0.6399999856948853,0.1500000059604644,9.800000190734863,-0.0700000002980232,0.209999993443489,45217686
1749119617706172397,-4.8125,5.8125,-0.3125,9.5600004196167,-0.209999993443489,0.3600000143051147,9.800000190734863,-0.0700000002980232,0.2199999988079071,45217706
1749119617720798625,-0.3125,-0.9375,-0.5,9.600000381469728,-0.5400000214576721,0.5400000214576721,9.800000190734863,-0.0700000002980232,0.2199999988079071,45217720
1749119617739214095,3.3125,0.1875,-0.5625,9.630000114440918,-0.0900000035762786,0.1899999976158142,9.800000190734863,-0.0700000002980232,0.2199999988079071,45217739
1749119617765094754,1.5625,0.6875,-1.3125,9.710000038146973,-0.1800000071525573,0.2599999904632568,9.800000190734863,-0.0700000002980232,0.2300000041723251,45217765
1749119617779824513,1.9375,-0.125,-2.1875,9.760000228881836,-0.2599999904632568,0.550000011920929,9.800000190734863,-0.0599999986588954,0.2300000041723251,45217779
1749119617815906405,3.5,0.375,-1.9375,9.710000038146973,-0.3700000047683716,0.0799999982118606,9.800000190734863,-0.0599999986588954,0.2300000041723251,45217815
1749119617843891336,6.1875,0.3125,-2.125,9.699999809265137,-0.5600000023841858,0.1299999952316284,9.800000190734863,-0.050000000745058,0.2300000041723251,45217843
1749119617854070083,7.75,-0.0625,-2.0625,9.979999542236328,-0.3000000119209289,0.3400000035762787,9.800000190734863,-0.050000000745058,0.2300000041723251,45217854
1749119617864955652,2.25,1.0,-1.0625,10.0600004196167,-0.0599999986588954,0.0599999986588954,9.800000190734863,-0.0399999991059303,0.2300000041723251,45217864
1749119617877188683,0.3125,1.8125,-0.6875,9.93000030517578,-0.3100000023841858,0.3199999928474426,9.800000190734863,-0.0399999991059303,0.2399999946355819,45217877
1749119617898171096,-2.125,2.0625,-0.75,10.199999809265137,0.0700000002980232,-0.0599999986588954,9.800000190734863,-0.0399999991059303,0.2399999946355819,45217898
1749119617917168474,-9.1875,4.8125,-0.8125,10.029999732971191,-0.0599999986588954,0.0299999993294477,9.800000190734863,-0.0399999991059303,0.25,45217917
1749119617940065474,-7.3125,2.625,0.125,9.729999542236328,-0.3000000119209289,0.4699999988079071,9.800000190734863,-0.0399999991059303,0.2599999904632568,45217940
1749119617957018505,-4.6875,2.5,1.125,9.640000343322754,-0.0900000035762786,0.4000000059604645,9.800000190734863,-0.0399999991059303,0.270000010728836,45217957
1749119617977062613,-6.8125,4.6875,0.4375,9.630000114440918,-0.0700000002980232,0.4000000059604645,9.800000190734863,-0.0399999991059303,0.2800000011920929,45217977
1749119618000358641,-7.5625,5.125,-0.125,9.630000114440918,-0.3199999928474426,0.550000011920929,9.800000190734863,-0.050000000745058,0.3000000119209289,45218000
1749119618025118208,-4.0,4.25,0.125,9.739999771118164,-0.3700000047683716,0.4000000059604645,9.800000190734863,-0.050000000745058,0.3199999928474426,45218025
1749119618037198057,-2.375,3.5,-0.0625,9.859999656677246,-0.3799999952316284,0.1800000071525573,9.800000190734863,-0.0599999986588954,0.3300000131130218,45218037
1749119618063086644,-2.5,3.5,-1.1875,9.869999885559082,-0.3899999856948852,0.3300000131130218,9.800000190734863,-0.0599999986588954,0.3400000035762787,45218063
1749119618079925670,-1.9375,2.4375,-1.9375,9.93000030517578,-0.2599999904632568,0.3600000143051147,9.789999961853027,-0.0599999986588954,0.3499999940395355,45218079
1749119618097077028,-1.75,2.375,-2.1875,9.93000030517578,0.0,0.2399999946355819,9.789999961853027,-0.0599999986588954,0.3600000143051147,45218097
1749119618145242693,-4.3125,3.1875,-2.25,9.90999984741211,0.1000000014901161,0.3199999928474426,9.789999961853027,-0.050000000745058,0.3700000047683716,45218145
1749119618154916899,-6.875,3.875,-1.5,9.779999732971191,0.1400000005960464,0.449999988079071,9.789999961853027,-0.0399999991059303,0.3799999952316284,45218154
1749119618160406630,-7.9375,4.8125,-0.5625,9.699999809265137,0.0,0.3700000047683716,9.789999961853027,-0.0399999991059303,0.3899999856948852,45218160
1749119618180041718,-7.0,5.6875,0.1875,9.6899995803833,0.0299999993294477,0.4099999964237213,9.789999961853027,-0.0399999991059303,0.4099999964237213,45218180
1749119618199079317,-8.8125,6.5625,0.1875,9.75,0.1199999973177909,0.5799999833106995,9.789999961853027,-0.0399999991059303,0.4300000071525574,45218199
1749119618219012662,-11.875,6.0625,0.25,9.770000457763672,0.0599999986588954,0.5799999833106995,9.789999961853027,-0.0399999991059303,0.4600000083446502,45218219
1749119618239994161,-10.25,5.375,0.125,9.739999771118164,-0.2300000041723251,0.7400000095367432,9.789999961853027,-0.050000000745058,0.4799999892711639,45218239
1749119618256974811,-7.875,4.25,-0.75,9.6899995803833,-0.3300000131130218,0.6899999976158142,9.789999961853027,-0.050000000745058,0.4900000095367431,45218256
1749119618279140926,-6.0625,2.875,-1.625,9.670000076293944,-0.1899999976158142,0.6800000071525574,9.789999961853027,-0.0399999991059303,0.5,45218279
1749119618297826093,-5.875,2.8125,-2.6875,9.699999809265137,-0.4099999964237213,0.6100000143051147,9.789999961853027,-0.0399999991059303,0.5099999904632568,45218297
1749119618322108340,-2.3125,3.25,-3.4375,9.859999656677246,-0.3499999940395355,0.6200000047683716,9.789999961853027,-0.0399999991059303,0.5299999713897705,45218322
1749119618349350200,-6.75,3.625,-3.25,9.890000343322754,-0.4900000095367431,0.4900000095367431,9.789999961853027,-0.0399999991059303,0.5400000214576721,45218349
1749119618372910212,-3.9375,2.75,-2.0,9.710000038146973,-0.75,0.5600000023841858,9.789999961853027,-0.0399999991059303,0.550000011920929,45218372
1749119618397085699,-1.9375,3.0,-1.1875,9.760000228881836,-0.4799999892711639,0.5299999713897705,9.789999961853027,-0.0299999993294477,0.5600000023841858,45218397
1749119618444951041,-1.3125,2.5,-1.1875,9.90999984741211,-0.0599999986588954,0.7599999904632568,9.779999732971191,-0.0299999993294477,0.5699999928474426,45218444
1749119618451944612,-2.8125,3.25,-1.5,9.739999771118164,-0.0799999982118606,0.800000011920929,9.779999732971191,-0.0299999993294477,0.5799999833106995,45218451
1749119618471186490,-1.1875,2.5,-1.25,9.75,0.050000000745058,0.949999988079071,9.779999732971191,-0.0199999995529651,0.5899999737739563,45218471
1749119618477997396,-3.625,2.25,-0.6875,9.729999542236328,0.1000000014901161,0.7699999809265137,9.779999732971191,-0.0199999995529651,0.6000000238418579,45218477
1749119618481008970,-3.8125,2.8125,-0.375,9.68000030517578,-0.1400000005960464,0.7200000286102295,9.779999732971191,-0.0199999995529651,0.6100000143051147,45218481
1749119618497824301,-0.5625,3.0625,0.1875,9.68000030517578,-0.3000000119209289,0.8299999833106995,9.779999732971191,-0.0199999995529651,0.6200000047683716,45218497
1749119618521949065,2.0,2.625,0.875,9.789999961853027,-0.25,0.8100000023841858,9.779999732971191,-0.0199999995529651,0.6299999952316284,45218521
1749119618547820027,1.4375,3.1875,0.4375,9.8100004196167,-0.209999993443489,0.7200000286102295,9.779999732971191,-0.0199999995529651,0.6399999856948853,45218547
1749119618556828358,0.25,2.875,0.4375,9.739999771118164,-0.2199999988079071,0.7300000190734863,9.779999732971191,-0.0199999995529651,0.6499999761581421,45218556
1749119618577011069,2.6875,2.3125,0.6875,9.739999771118164,-0.1000000014901161,0.6899999976158142,9.779999732971191,-0.0299999993294477,0.6600000262260437,45218577
1749119618600973045,3.9375,1.875,0.9375,9.720000267028809,0.0099999997764825,0.699999988079071,9.779999732971191,-0.0299999993294477,0.6600000262260437,45218600
1749119618619698998,4.0,0.75,0.4375,9.800000190734863,0.1599999964237213,0.959999978542328,9.779999732971191,-0.0299999993294477,0.6700000166893005,45218619
1749119618644149490,1.625,1.75,0.25,9.899999618530272,0.3000000119209289,0.9900000095367432,9.779999732971191,-0.0299999993294477,0.6800000071525574,45218644
1749119618661222058,-3.6875,3.0625,0.8125,9.920000076293944,0.209999993443489,0.8999999761581421,9.779999732971191,-0.0299999993294477,0.6800000071525574,45218661
1749119618684936119,-8.75,4.625,1.125,9.949999809265137,0.2199999988079071,0.5600000023841858,9.779999732971191,-0.0299999993294477,0.699999988079071,45218684
1749119618701739661,-13.5,6.1875,1.375,9.850000381469728,-0.0099999997764825,0.5799999833106995,9.770000457763672,-0.0399999991059303,0.7200000286102295,45218701
1749119618716935650,-11.5,5.1875,0.875,9.640000343322754,-0.0799999982118606,0.699999988079071,9.770000457763672,-0.0399999991059303,0.7400000095367432,45218716
1749119618735870492,-10.625,4.625,0.125,9.619999885559082,-0.1800000071525573,0.8100000023841858,9.770000457763672,-0.0399999991059303,0.75,45218735
1749119618761293018,-10.25,3.75,-1.125,9.65999984741211,-0.1400000005960464,0.9200000166893004,9.770000457763672,-0.050000000745058,0.7699999809265137,45218761
1749119618776849455,-10.25,3.125,-1.875,9.68000030517578,-0.1599999964237213,1.0099999904632568,9.770000457763672,-0.0399999991059303,0.7799999713897705,45218776
1749119618798983175,-8.4375,2.125,-1.9375,9.789999961853027,-0.270000010728836,1.0199999809265137,9.770000457763672,-0.0399999991059303,0.7900000214576721,45218798
1749119618818885410,-12.0625,1.75,-1.75,9.960000038146973,0.1500000059604644,0.699999988079071,9.770000457763672,-0.0399999991059303,0.800000011920929,45218818
1749119618849226548,-18.6875,4.4375,-2.125,9.710000038146973,-0.0299999993294477,0.9800000190734864,9.770000457763672,-0.0399999991059303,0.8100000023841858,45218849
1749119618862355336,-14.8125,0.875,-1.9375,9.369999885559082,-1.1699999570846558,1.4299999475479126,9.770000457763672,-0.0299999993294477,0.8199999928474426,45218862
1749119618878786120,-5.5625,-1.5,0.25,9.789999961853027,-0.6600000262260437,1.0099999904632568,9.770000457763672,-0.0399999991059303,0.8100000023841858,45218878
1749119618901013972,-2.9375,0.25,1.0625,9.789999961853027,-0.6399999856948853,0.8999999761581421,9.770000457763672,-0.0399999991059303,0.8100000023841858,45218901
1749119618925969901,-2.4375,1.3125,1.3125,9.739999771118164,-0.7799999713897705,1.4800000190734863,9.770000457763672,-0.0399999991059303,0.8199999928474426,45218925
1749119618950723194,-4.5,0.5625,1.4375,9.960000038146973,-0.5699999928474426,1.4700000286102295,9.770000457763672,-0.050000000745058,0.8199999928474426,45218950
1749119618975054847,-5.75,1.8125,3.0625,9.890000343322754,-0.3199999928474426,0.6000000238418579,9.770000457763672,-0.0599999986588954,0.8199999928474426,45218975
1749119619000909857,-1.5,1.5625,4.4375,9.779999732971191,-0.25,1.1299999952316284,9.770000457763672,-0.0799999982118606,0.8299999833106995,45219000
1749119619019160206,-6.8125,1.0,4.125,9.869999885559082,0.0799999982118606,0.9100000262260436,9.770000457763672,-0.0900000035762786,0.8299999833106995,45219019
1749119619026864548,-12.125,4.125,4.0625,9.779999732971191,0.1099999994039535,0.8100000023841858,9.760000228881836,-0.1099999994039535,0.8399999737739563,45219026
1749119619037026866,-14.5625,4.625,4.125,9.75,-0.0799999982118606,0.9100000262260436,9.760000228881836,-0.1299999952316284,0.8600000143051147,45219037
1749119619063305847,-11.3125,3.6875,4.0625,9.640000343322754,-0.2199999988079071,0.8999999761581421,9.760000228881836,-0.1400000005960464,0.8700000047683716,45219063
1749119619077105981,-10.625,2.9375,3.5,9.579999923706056,-0.3199999928474426,0.9200000166893004,9.760000228881836,-0.1599999964237213,0.8799999952316284,45219077
1749119619096740679,-10.5,2.4375,2.125,9.640000343322754,-0.270000010728836,0.9200000166893004,9.760000228881836,-0.1700000017881393,0.8899999856948853,45219096
1749119619122839392,-10.9375,3.125,0.375,9.699999809265137,-0.3000000119209289,0.8100000023841858,9.760000228881836,-0.1800000071525573,0.8999999761581421,45219122
1749119619142147460,-11.125,3.0,-0.375,9.739999771118164,-0.3799999952316284,0.8500000238418579,9.760000228881836,-0.1800000071525573,0.9100000262260436,45219142
1749119619160817884,-11.3125,1.4375,-1.3125,9.81999969482422,-0.3899999856948852,0.7699999809265137,9.760000228881836,-0.1800000071525573,0.9100000262260436,45219160
1749119619180854524,-10.4375,0.9375,-2.0625,9.789999961853027,-0.4699999988079071,0.7400000095367432,9.760000228881836,-0.1800000071525573,0.9100000262260436,45219180
1749119619206068487,-8.625,0.8125,-2.75,9.6899995803833,-0.3899999856948852,1.0299999713897705,9.760000228881836,-0.1800000071525573,0.9100000262260436,45219206
1749119619223140846,-8.375,0.625,-3.375,9.869999885559082,-0.4600000083446502,1.0299999713897705,9.760000228881836,-0.1800000071525573,0.9200000166893004,45219223
1749119619247007816,-7.8125,-0.25,-4.4375,9.600000381469728,-0.7400000095367432,1.2799999713897705,9.760000228881836,-0.1700000017881393,0.9200000166893004,45219247
1749119619257865596,-4.625,-1.625,-5.25,9.520000457763672,-1.059999942779541,0.9399999976158142,9.760000228881836,-0.1500000059604644,0.9100000262260436,45219257
1749119619279973409,1.75,-0.6875,-6.0625,9.34000015258789,-1.559999942779541,0.9399999976158142,9.760000228881836,-0.1299999952316284,0.9100000262260436,45219279
1749119619299158493,10.75,-5.125,-4.9375,9.640000343322754,-1.0700000524520874,1.0800000429153442,9.760000228881836,-0.1099999994039535,0.8899999856948853,45219299
1749119619326140630,15.3125,-3.1875,-3.8125,9.779999732971191,-1.190000057220459,1.2100000381469729,9.760000228881836,-0.0900000035762786,0.8799999952316284,45219326
1749119619350837296,19.6875,-3.0,-2.625,9.8100004196167,-1.0199999809265137,1.4600000381469729,9.760000228881836,-0.1099999994039535,0.8799999952316284,45219350
1749119619359081748,18.6875,-2.375,-1.1875,10.029999732971191,-0.5,1.059999942779541,9.760000228881836,-0.1000000014901161,0.8700000047683716,45219359
1749119619376819003,18.1875,0.125,1.0625,9.920000076293944,-0.3499999940395355,0.9100000262260436,9.760000228881836,-0.0900000035762786,0.8700000047683716,45219376
1749119619440989180,19.75,0.5625,3.0625,9.829999923706056,0.050000000745058,0.9700000286102296,9.760000228881836,-0.1000000014901161,0.8700000047683716,45219440
1749119619467157023,14.4375,1.6875,3.4375,9.6899995803833,0.5899999737739563,1.0299999713897705,9.760000228881836,-0.1000000014901161,0.8799999952316284,45219467
1749119619492083869,7.8125,3.4375,2.4375,9.279999732971191,-0.209999993443489,1.3200000524520874,9.760000228881836,-0.1099999994039535,0.8899999856948853,45219492
1749119619500863734,11.3125,-1.0625,2.25,9.5,-0.3899999856948852,1.6399999856948853,9.760000228881836,-0.1199999973177909,0.8899999856948853,45219500
1749119619510101506,10.5,-4.25,0.375,10.050000190734863,0.3400000035762787,0.9100000262260436,9.760000228881836,-0.1199999973177909,0.8799999952316284,45219510
1749119619520076899,-7.25,6.0625,-1.3125,9.920000076293944,-0.5099999904632568,0.0,9.760000228881836,-0.1099999994039535,0.8899999856948853,45219520
1749119619534887467,3.1875,2.4375,-0.5625,9.93000030517578,-0.7300000190734863,1.2899999618530271,9.760000228881836,-0.1099999994039535,0.8999999761581421,45219534
1749119619540895716,5.9375,-1.25,-0.3125,9.880000114440918,-0.0799999982118606,1.2100000381469729,9.760000228881836,-0.1099999994039535,0.8999999761581421,45219540
1749119619581968845,6.875,-1.1875,-1.5625,9.609999656677246,0.0099999997764825,0.800000011920929,9.760000228881836,-0.1000000014901161,0.8999999761581421,45219581
1749119619599693891,2.4375,0.9375,-4.4375,9.329999923706056,-0.2599999904632568,1.2200000286102295,9.760000228881836,-0.0900000035762786,0.8999999761581421,45219599
1749119619607401728,2.8125,-1.8125,-5.875,9.470000267028809,0.050000000745058,1.1799999475479126,9.760000228881836,-0.0700000002980232,0.8999999761581421,45219607
1749119619618953410,0.25,-1.125,-5.8125,9.710000038146973,-0.0799999982118606,0.6100000143051147,9.760000228881836,-0.050000000745058,0.8899999856948853,45219618
1749119619637839397,3.25,-4.3125,-7.1875,9.770000457763672,-0.8600000143051147,1.0399999618530271,9.760000228881836,-0.0299999993294477,0.8799999952316284,45219637
1749119619660197980,6.5,-5.0,-6.4375,9.880000114440918,-0.8299999833106995,1.399999976158142,9.760000228881836,0.0,0.8700000047683716,45219660
1749119619679124970,9.4375,-4.125,-4.625,9.93000030517578,-0.4600000083446502,1.309999942779541,9.760000228881836,0.0099999997764825,0.8500000238418579,45219679
1749119619701361577,9.4375,-2.0625,-3.9375,9.789999961853027,-0.4900000095367431,1.0399999618530271,9.760000228881836,0.0199999995529651,0.8399999737739563,45219701
1749119619726081360,11.125,-1.3125,-1.6875,9.59000015258789,-0.6399999856948853,1.3200000524520874,9.770000457763672,0.0299999993294477,0.8399999737739563,45219726
1749119619738191326,13.0,-3.4375,-0.9375,9.609999656677246,-0.550000011920929,1.2599999904632568,9.760000228881836,0.0099999997764825,0.8500000238418579,45219738
1749119619764158557,13.375,-3.125,0.0,9.81999969482422,-0.6399999856948853,1.0399999618530271,9.760000228881836,-0.0099999997764825,0.8500000238418579,45219764
1749119619777027453,18.6875,-2.125,0.375,9.850000381469728,-0.4099999964237213,1.1299999952316284,9.760000228881836,-0.0199999995529651,0.8500000238418579,45219777
1749119619810182665,17.25,-2.625,0.25,9.65999984741211,-0.3799999952316284,1.1100000143051147,9.760000228881836,-0.0199999995529651,0.8500000238418579,45219810
1749119619822121556,14.875,-2.5,-0.375,9.81999969482422,-0.1299999952316284,0.8100000023841858,9.760000228881836,-0.0299999993294477,0.8500000238418579,45219822
1749119619836802421,13.4375,0.4375,1.4375,9.539999961853027,-0.550000011920929,0.9100000262260436,9.760000228881836,-0.0299999993294477,0.8500000238418579,45219836
1749119619861210764,26.5,-3.6875,-0.0625,10.010000228881836,0.1599999964237213,0.6000000238418579,9.770000457763672,-0.0199999995529651,0.8399999737739563,45219861
1749119619882369991,14.0625,-2.6875,-0.3125,9.479999542236328,-0.3300000131130218,1.1200000047683716,9.770000457763672,-0.0199999995529651,0.8299999833106995,45219882
1749119619900026527,18.5625,-1.25,1.125,9.6899995803833,-0.1299999952316284,1.0800000429153442,9.770000457763672,-0.0199999995529651,0.8299999833106995,45219900
1749119619925041880,19.375,-2.125,0.5,9.670000076293944,0.0299999993294477,1.090000033378601,9.770000457763672,-0.0199999995529651,0.8199999928474426,45219925
1749119619936203186,20.5,-2.0,0.8125,9.720000267028809,-0.0399999991059303,0.8999999761581421,9.770000457763672,-0.0099999997764825,0.8100000023841858,45219936
1749119619959848272,15.9375,0.0,1.25,9.729999542236328,0.209999993443489,0.8100000023841858,9.770000457763672,-0.0099999997764825,0.8100000023841858,45219959
1749119619988141244,12.4375,5.75,6.375,9.59000015258789,-0.5199999809265137,1.190000057220459,9.770000457763672,-0.0299999993294477,0.8299999833106995,45219988
1749119619997101492,19.5625,4.3125,7.0,9.84000015258789,0.0399999991059303,1.309999942779541,9.760000228881836,-0.0399999991059303,0.8500000238418579,45219997
1749119620017294503,13.375,3.0,6.0,10.09000015258789,0.2599999904632568,0.959999978542328,9.760000228881836,-0.0599999986588954,0.8600000143051147,45220017
1749119620040085403,9.3125,2.8125,4.125,9.960000038146973,-0.0799999982118606,1.0399999618530271,9.760000228881836,-0.0700000002980232,0.8700000047683716,45220040
1749119620065753207,9.0,5.0625,7.0,9.84000015258789,-0.4300000071525574,1.2899999618530271,9.760000228881836,-0.0900000035762786,0.8799999952316284,45220065
1749119620084030457,9.1875,0.0625,5.375,9.859999656677246,0.4600000083446502,1.2599999904632568,9.760000228881836,-0.1099999994039535,0.8899999856948853,45220084
1749119620099931963,0.6875,-2.6875,1.9375,9.789999961853027,0.449999988079071,1.1299999952316284,9.760000228881836,-0.1199999973177909,0.8799999952316284,45220099
1749119620142201051,-1.625,-3.0625,-0.6875,9.609999656677246,0.0599999986588954,1.2999999523162842,9.760000228881836,-0.1199999973177909,0.8700000047683716,45220142
1749119620166846203,-1.625,-4.5,-2.0,9.699999809265137,0.5799999833106995,0.9300000071525574,9.760000228881836,-0.1000000014901161,0.8700000047683716,45220166
1749119620191263555,-5.6875,-2.9375,-1.5,9.420000076293944,0.4300000071525574,0.7200000286102295,9.760000228881836,-0.0900000035762786,0.8600000143051147,45220191
1749119620214121343,-5.875,-5.125,-1.9375,9.5,-0.2000000029802322,0.6499999761581421,9.760000228881836,-0.0900000035762786,0.8399999737739563,45220214
1749119620227036767,-4.25,-6.6875,-4.1875,9.699999809265137,0.1500000059604644,0.3499999940395355,9.770000457763672,-0.0799999982118606,0.8199999928474426,45220227
1749119620239172602,-5.9375,-5.5,-3.9375,9.800000190734863,-0.1199999973177909,0.3100000023841858,9.770000457763672,-0.0700000002980232,0.800000011920929,45220239
1749119620245394756,-5.125,-5.1875,-4.75,9.850000381469728,-0.2300000041723251,0.75,9.770000457763672,-0.050000000745058,0.7799999713897705,45220245
1749119620257087013,-2.875,-6.375,-4.5,9.880000114440918,-0.3600000143051147,0.75,9.770000457763672,-0.0399999991059303,0.7599999904632568,45220257
1749119620282045324,-4.875,-5.3125,-4.5,9.630000114440918,-0.5600000023841858,0.8399999737739563,9.770000457763672,-0.0199999995529651,0.7400000095367432,45220282
1749119620295866628,-2.125,-5.5,-3.625,9.729999542236328,-0.4099999964237213,0.8799999952316284,9.770000457763672,-0.0099999997764825,0.7300000190734863,45220295
1749119620319779053,1.0625,-4.125,-2.5,9.75,-0.1099999994039535,0.8100000023841858,9.779999732971191,0.0,0.7099999785423279,45220319
1749119620337054653,2.625,-3.875,-2.875,9.81999969482422,-0.1700000017881393,1.1100000143051147,9.779999732971191,0.0,0.699999988079071,45220337
1749119620372918331,-3.75,-3.5625,-3.3125,9.859999656677246,-0.0799999982118606,0.9399999976158142,9.779999732971191,0.0,0.6899999976158142,45220372
1749119620377898566,-4.4375,1.0,0.0,9.579999923706056,-0.5299999713897705,1.3799999952316284,9.779999732971191,0.0,0.6899999976158142,45220377
1749119620414083375,3.5,-2.5,-0.875,9.75,-0.25,0.8500000238418579,9.779999732971191,0.0099999997764825,0.6899999976158142,45220414
1749119620425070598,-0.375,-1.9375,-1.8125,10.09000015258789,-0.1899999976158142,0.2000000029802322,9.779999732971191,0.0099999997764825,0.6800000071525574,45220425
1749119620438803196,3.5625,-4.25,-1.9375,9.789999961853027,-0.1400000005960464,1.25,9.779999732971191,0.0199999995529651,0.6700000166893005,45220438
1749119620464860518,-0.625,-3.625,-1.3125,9.890000343322754,-0.050000000745058,0.6700000166893005,9.779999732971191,0.0199999995529651,0.6600000262260437,45220464
1749119620495984795,4.875,-3.1875,-0.375,9.720000267028809,-0.270000010728836,0.8600000143051147,9.779999732971191,0.0199999995529651,0.6499999761581421,45220495
1749119620501118312,6.5,-4.375,-1.0,9.739999771118164,-0.1700000017881393,0.8399999737739563,9.779999732971191,0.0199999995529651,0.6399999856948853,45220501
1749119620516081499,2.125,-2.0625,-0.25,9.84000015258789,0.0,0.699999988079071,9.779999732971191,0.0199999995529651,0.6299999952316284,45220516
1749119620539640209,4.9375,-1.5625,0.125,9.760000228881836,0.0199999995529651,0.8299999833106995,9.779999732971191,0.0199999995529651,0.6299999952316284,45220539
1749119620560068775,4.25,-1.625,0.3125,9.779999732971191,-0.0399999991059303,0.6000000238418579,9.779999732971191,0.0199999995529651,0.6200000047683716,45220560
1749119620585124494,5.5625,-2.0,-0.4375,9.5,1.059999942779541,0.270000010728836,9.779999732971191,0.0199999995529651,0.6200000047683716,45220585
1749119620619182701,0.3125,1.5625,0.875,9.649999618530272,-0.5899999737739563,0.6299999952316284,9.779999732971191,0.0199999995529651,0.6200000047683716,45220619
1749119620626943689,8.125,-4.875,-2.8125,9.65999984741211,0.1299999952316284,1.149999976158142,9.779999732971191,0.0299999993294477,0.6100000143051147,45220626
1749119620636712962,2.8125,-3.0625,-4.375,9.729999542236328,-0.4399999976158142,0.2800000011920929,9.779999732971191,0.0399999991059303,0.5899999737739563,45220636
1749119620660966154,7.0625,-4.75,-4.5,9.829999923706056,-0.4699999988079071,0.9100000262260436,9.779999732971191,0.0599999986588954,0.5799999833106995,45220660
1749119620685960209,9.3125,-6.4375,-4.5625,9.880000114440918,-0.25,0.5400000214576721,9.779999732971191,0.0700000002980232,0.5600000023841858,45220685
1749119620711159577,12.5,-5.625,-3.5,9.710000038146973,-0.2399999946355819,0.5699999928474426,9.789999961853027,0.0799999982118606,0.5400000214576721,45220711
1749119620720101734,11.0,-5.1875,-2.5625,9.760000228881836,-0.1800000071525573,0.9200000166893004,9.789999961853027,0.0900000035762786,0.5299999713897705,45220720
1749119620739055470,8.6875,-3.5625,-1.8125,9.829999923706056,-0.1400000005960464,1.090000033378601,9.789999961853027,0.0900000035762786,0.5199999809265137,45220739
1749119620762948878,6.625,-1.75,-0.6875,9.859999656677246,-0.1700000017881393,0.959999978542328,9.789999961853027,0.1000000014901161,0.5099999904632568,45220762
1749119620780095430,5.5625,-1.4375,0.25,9.850000381469728,-0.1099999994039535,0.7799999713897705,9.789999961853027,0.1000000014901161,0.5099999904632568,45220780
1749119620805305573,5.6875,-1.1875,0.875,9.829999923706056,-0.1700000017881393,0.6700000166893005,9.789999961853027,0.0900000035762786,0.5099999904632568,45220805
1749119620826840267,4.9375,-1.4375,1.0625,9.779999732971191,0.0599999986588954,0.6600000262260437,9.789999961853027,0.0900000035762786,0.5099999904632568,45220826
1749119620840345122,3.3125,-1.1875,1.0,9.710000038146973,0.1299999952316284,0.7699999809265137,9.789999961853027,0.0799999982118606,0.5099999904632568,45220840
1749119620856064274,2.1875,-2.1875,1.1875,9.65999984741211,0.1599999964237213,0.8700000047683716,9.789999961853027,0.0799999982118606,0.5,45220856
1749119620878139015,2.9375,-1.6875,0.8125,9.739999771118164,0.1000000014901161,0.800000011920929,9.789999961853027,0.0799999982118606,0.5099999904632568,45220878
1749119620900861337,2.6875,-1.875,0.4375,9.699999809265137,-0.0099999997764825,0.7599999904632568,9.789999961853027,0.0799999982118606,0.5099999904632568,45220900
1749119620919929063,3.25,-1.875,0.5,9.75,0.0099999997764825,0.6000000238418579,9.789999961853027,0.0799999982118606,0.5,45220919
1749119620938819667,3.5,-2.75,1.0,9.829999923706056,0.25,0.4699999988079071,9.789999961853027,0.0799999982118606,0.4900000095367431,45220938
1749119620975651540,2.5625,-2.9375,1.375,9.8100004196167,0.2599999904632568,0.4600000083446502,9.789999961853027,0.0700000002980232,0.4799999892711639,45220975
1749119620983225959,-0.0625,-3.0625,1.125,9.779999732971191,0.2199999988079071,0.699999988079071,9.789999961853027,0.0700000002980232,0.4699999988079071,45220983
1749119621006122364,-2.125,-2.5,1.25,9.699999809265137,0.2000000029802322,0.699999988079071,9.789999961853027,0.0700000002980232,0.4699999988079071,45221006
1749119621017971450,-5.875,-3.375,-0.625,9.859999656677246,0.2199999988079071,0.4799999892711639,9.789999961853027,0.0700000002980232,0.4600000083446502,45221017
1749119621037191000,-7.75,-2.75,-3.625,9.65999984741211,-0.5699999928474426,0.3899999856948852,9.789999961853027,0.0799999982118606,0.449999988079071,45221037
1749119621062132050,-1.1875,-2.5,-3.1875,9.779999732971191,-0.800000011920929,0.3400000035762787,9.789999961853027,0.0900000035762786,0.4399999976158142,45221062
1749119621078069749,2.5625,-6.5,-3.0,10.020000457763672,-0.5799999833106995,0.1299999952316284,9.789999961853027,0.1000000014901161,0.4300000071525574,45221078
1749119621097945466,6.375,-7.0625,-2.8125,9.970000267028809,-0.6200000047683716,0.1400000005960464,9.789999961853027,0.1099999994039535,0.4000000059604645,45221097
1749119621122003305,2.75,-5.125,-2.1875,9.81999969482422,-0.3700000047683716,0.5799999833106995,9.789999961853027,0.1099999994039535,0.3799999952316284,45221122
1749119621147052681,2.75,-2.625,-0.3125,9.670000076293944,-0.2800000011920929,0.6600000262260437,9.789999961853027,0.1099999994039535,0.3700000047683716,45221147
1749119621157900051,5.3125,-0.625,2.0625,9.670000076293944,-0.0599999986588954,0.7799999713897705,9.789999961853027,0.1099999994039535,0.3700000047683716,45221157
1749119621178993356,5.6875,0.375,3.6875,9.8100004196167,0.3100000023841858,0.9700000286102296,9.789999961853027,0.1000000014901161,0.3700000047683716,45221178
1749119621197124573,2.4375,0.875,3.4375,9.880000114440918,0.5699999928474426,0.8299999833106995,9.789999961853027,0.0799999982118606,0.3700000047683716,45221197
1749119621217062915,-0.125,1.625,3.125,9.9399995803833,0.6299999952316284,0.4799999892711639,9.789999961853027,0.0700000002980232,0.3799999952316284,45221217
1749119621237435961,-1.375,0.9375,2.375,9.850000381469728,0.550000011920929,0.4000000059604645,9.789999961853027,0.0700000002980232,0.3799999952316284,45221237
1749119621259892315,-3.8125,-0.6875,1.3125,9.6899995803833,0.209999993443489,0.4000000059604645,9.789999961853027,0.0599999986588954,0.3799999952316284,45221259
1749119621283295610,-3.375,-2.3125,0.0625,9.710000038146973,-0.1099999994039535,0.3700000047683716,9.789999961853027,0.0599999986588954,0.3700000047683716,45221283
1749119621298102212,-1.625,-2.625,-1.75,9.739999771118164,-0.2399999946355819,0.2599999904632568,9.789999961853027,0.0599999986588954,0.3600000143051147,45221298
1749119621316042178,7.4375,-6.5625,-3.3125,10.010000228881836,-0.3799999952316284,0.3199999928474426,9.800000190734863,0.0700000002980232,0.3499999940395355,45221316
1749119621336943296,2.0625,-6.3125,-4.4375,9.899999618530272,-0.209999993443489,0.1299999952316284,9.800000190734863,0.0900000035762786,0.3300000131130218,45221336
1749119621359966304,4.0,-0.125,-2.4375,9.720000267028809,-0.5099999904632568,0.0,9.800000190734863,0.1000000014901161,0.3199999928474426,45221359
1749119621380362467,10.25,1.0625,-0.375,9.800000190734863,-0.2399999946355819,0.6800000071525574,9.800000190734863,0.1000000014901161,0.3199999928474426,45221380
1749119621401145921,10.125,-1.0,-0.625,9.84000015258789,-0.3199999928474426,0.7300000190734863,9.800000190734863,0.1000000014901161,0.3199999928474426,45221401
1749119621419113821,11.8125,-2.0625,-2.0625,9.869999885559082,-0.2899999916553497,0.5400000214576721,9.800000190734863,0.1099999994039535,0.3199999928474426,45221419
1749119621439107625,9.6875,-1.375,-2.125,9.789999961853027,-0.2899999916553497,0.4699999988079071,9.800000190734863,0.1099999994039535,0.3100000023841858,45221439
1749119621462006461,14.3125,-0.4375,-1.0625,9.720000267028809,-0.3300000131130218,0.4399999976158142,9.800000190734863,0.1000000014901161,0.3199999928474426,45221462
1749119621487121488,17.0625,-1.4375,-0.0625,9.729999542236328,-0.2199999988079071,0.6600000262260437,9.800000190734863,0.0900000035762786,0.3199999928474426,45221487
1749119621505120774,14.6875,-2.0625,0.5,9.829999923706056,0.1199999973177909,0.6399999856948853,9.800000190734863,0.0900000035762786,0.3100000023841858,45221505
1749119621523986050,13.25,-1.5625,1.0625,9.800000190734863,0.3100000023841858,0.7699999809265137,9.800000190734863,0.0900000035762786,0.3100000023841858,45221523
1749119621545954220,11.8125,-1.4375,1.5,9.829999923706056,0.4300000071525574,0.8100000023841858,9.800000190734863,0.0900000035762786,0.3000000119209289,45221545
1749119621559976620,8.9375,-0.875,1.9375,9.800000190734863,0.5799999833106995,0.7599999904632568,9.800000190734863,0.0799999982118606,0.3000000119209289,45221559
1749119621584073175,5.3125,-1.25,2.125,9.8100004196167,0.6399999856948853,0.6600000262260437,9.800000190734863,0.0700000002980232,0.3000000119209289,45221584
1749119621596188308,1.375,-1.5,1.6875,9.760000228881836,0.7300000190734863,0.6499999761581421,9.800000190734863,0.0700000002980232,0.2899999916553497,45221596
1749119621622951862,-3.125,-2.0625,1.25,9.779999732971191,0.550000011920929,0.6899999976158142,9.800000190734863,0.0900000035762786,0.3000000119209289,45221622
1749119621640134989,-6.6875,-2.6875,0.875,9.739999771118164,0.4199999868869781,0.6100000143051147,9.800000190734863,0.1000000014901161,0.3000000119209289,45221640
1749119621669788028,-8.5,-2.75,0.875,9.770000457763672,0.2000000029802322,0.4900000095367431,9.800000190734863,0.1000000014901161,0.2899999916553497,45221669
1749119621676981127,-9.1875,-2.5,1.0,9.8100004196167,0.0299999993294477,0.5199999809265137,9.800000190734863,0.0900000035762786,0.2899999916553497,45221676
1749119621704872051,-9.25,-2.6875,0.9375,9.789999961853027,-0.1199999973177909,0.5,9.800000190734863,0.0900000035762786,0.2800000011920929,45221704
1749119621716900430,-9.0,-3.0625,1.5625,9.800000190734863,-0.1800000071525573,0.3899999856948852,9.800000190734863,0.0799999982118606,0.270000010728836,45221716
1749119621745185122,-7.0625,-3.0,1.875,9.789999961853027,-0.2899999916553497,0.4600000083446502,9.800000190734863,0.0799999982118606,0.2599999904632568,45221745
1749119621759003479,-5.8125,-2.9375,1.75,9.789999961853027,-0.4300000071525574,0.3300000131130218,9.800000190734863,0.0599999986588954,0.25,45221759
1749119621780887920,-3.5625,-3.125,1.75,9.729999542236328,-0.5799999833106995,0.3700000047683716,9.800000190734863,0.050000000745058,0.2399999946355819,45221780
1749119621799276466,-0.5,-3.625,1.5625,9.699999809265137,-0.6100000143051147,0.2599999904632568,9.800000190734863,0.0399999991059303,0.2300000041723251,45221799
1749119621824027063,3.1875,-3.5,1.8125,9.770000457763672,-0.4900000095367431,0.3700000047683716,9.800000190734863,0.0199999995529651,0.2199999988079071,45221824
1749119621839068259,4.6875,-3.3125,1.75,9.869999885559082,-0.3300000131130218,0.3600000143051147,9.800000190734863,0.0,0.2199999988079071,45221839
1749119621856976990,4.3125,-3.3125,1.9375,9.859999656677246,-0.25,0.4099999964237213,9.800000190734863,0.0,0.209999993443489,45221856
1749119621880971091,3.0625,-3.0,1.875,9.84000015258789,-0.2800000011920929,0.3700000047683716,9.800000190734863,-0.0199999995529651,0.2000000029802322,45221880
1749119621904593116,3.0,-2.9375,2.1875,9.779999732971191,-0.25,0.3600000143051147,9.800000190734863,-0.0299999993294477,0.2000000029802322,45221904
1749119621932012448,3.125,-3.1875,2.3125,9.720000267028809,-0.2199999988079071,0.3300000131130218,9.800000190734863,-0.0399999991059303,0.1899999976158142,45221932
1749119621999871101,2.9375,-3.375,1.875,9.720000267028809,-0.1299999952316284,0.4199999868869781,9.800000190734863,-0.050000000745058,0.1800000071525573,45221999
1749119622025780932,2.375,-3.4375,1.3125,9.789999961853027,-0.1000000014901161,0.4399999976158142,9.800000190734863,-0.050000000745058,0.1700000017881393,45222025
1749119622051047579,1.0,-3.6875,1.0,9.859999656677246,-0.209999993443489,0.449999988079071,9.800000190734863,-0.0599999986588954,0.1700000017881393,45222051
1749119622077012157,1.0625,-4.0625,1.0,9.880000114440918,-0.25,0.3400000035762787,9.800000190734863,-0.0599999986588954,0.1599999964237213,45222077
1749119622077123513,0.875,-4.0625,1.75,9.869999885559082,-0.3300000131130218,0.3000000119209289,9.800000190734863,-0.0700000002980232,0.1500000059604644,45222077
1749119622099881321,2.0625,-3.75,2.375,9.739999771118164,-0.4300000071525574,0.2300000041723251,9.800000190734863,-0.0799999982118606,0.1400000005960464,45222099
1749119622124606793,3.875,-3.5,2.6875,9.720000267028809,-0.5799999833106995,0.1899999976158142,9.800000190734863,-0.1000000014901161,0.1299999952316284,45222124
1749119622139855974,7.4375,-4.0,2.9375,9.710000038146973,-0.6000000238418579,0.2300000041723251,9.800000190734863,-0.1099999994039535,0.1099999994039535,45222139
1749119622149251180,10.5625,-4.1875,2.9375,9.729999542236328,-0.6700000166893005,0.1599999964237213,9.800000190734863,-0.1299999952316284,0.1000000014901161,45222149
1749119622153148472,14.9375,-4.3125,2.9375,9.720000267028809,-0.6399999856948853,0.2000000029802322,9.800000190734863,-0.1599999964237213,0.0900000035762786,45222153
1749119622161930470,17.625,-4.8125,2.625,9.729999542236328,-0.550000011920929,0.1299999952316284,9.800000190734863,-0.1800000071525573,0.0799999982118606,45222161
1749119622174047188,21.9375,-5.75,2.9375,9.800000190734863,-0.4699999988079071,0.1500000059604644,9.800000190734863,-0.2000000029802322,0.0599999986588954,45222174
1749119622185839145,25.9375,-6.1875,3.1875,9.84000015258789,-0.2300000041723251,0.2399999946355819,9.800000190734863,-0.209999993443489,0.050000000745058,45222185
1749119622198031626,25.6875,-6.9375,3.375,9.859999656677246,0.0299999993294477,0.3700000047683716,9.800000190734863,-0.2199999988079071,0.0299999993294477,45222198
1749119622223106821,24.75,-6.6875,3.5625,9.880000114440918,0.2399999946355819,0.3600000143051147,9.800000190734863,-0.2300000041723251,0.0099999997764825,45222223
1749119622249353446,21.875,-6.125,3.75,9.84000015258789,0.3600000143051147,0.3600000143051147,9.800000190734863,-0.25,0.0,45222249
1749119622258097095,17.5625,-5.375,3.6875,9.770000457763672,0.3600000143051147,0.3100000023841858,9.800000190734863,-0.2599999904632568,-0.0199999995529651,45222258
1749119622280937758,13.1875,-5.1875,3.4375,9.75,0.1899999976158142,0.2000000029802322,9.800000190734863,-0.2599999904632568,-0.0299999993294477,45222280
1749119622300104590,11.1875,-5.125,3.25,9.710000038146973,0.0099999997764825,0.1000000014901161,9.800000190734863,-0.2599999904632568,-0.0399999991059303,45222300
1749119622324128669,10.5625,-5.1875,3.375,9.729999542236328,-0.1000000014901161,0.0099999997764825,9.800000190734863,-0.2800000011920929,-0.0599999986588954,45222324
1749119622336098071,10.625,-5.5,2.6875,9.729999542236328,-0.1800000071525573,0.0,9.800000190734863,-0.2899999916553497,-0.0700000002980232,45222336
1749119622375276513,12.3125,-5.625,2.125,9.710000038146973,-0.1899999976158142,-0.050000000745058,9.800000190734863,-0.2899999916553497,-0.0900000035762786,45222375
1749119622384905023,12.6875,-5.5625,0.9375,9.760000228881836,-0.1000000014901161,-0.0900000035762786,9.800000190734863,-0.3000000119209289,-0.1099999994039535,45222384
1749119622409143864,12.8125,-5.875,-0.5,9.770000457763672,0.0,-0.1899999976158142,9.800000190734863,-0.2899999916553497,-0.1299999952316284,45222409
1749119622422057068,11.9375,-6.375,-2.125,9.729999542236328,-0.0700000002980232,-0.209999993443489,9.800000190734863,-0.2800000011920929,-0.1500000059604644,45222422
1749119622437161681,11.125,-7.1875,-3.125,9.729999542236328,-0.1700000017881393,-0.2399999946355819,9.800000190734863,-0.270000010728836,-0.1700000017881393,45222437
1749119622460035353,10.625,-7.5625,-3.3125,9.760000228881836,-0.1899999976158142,-0.270000010728836,9.800000190734863,-0.2599999904632568,-0.1899999976158142,45222460
1749119622480059610,8.6875,-7.3125,-3.125,9.869999885559082,-0.3300000131130218,-0.1899999976158142,9.800000190734863,-0.25,-0.2199999988079071,45222480
1749119622505786024,6.3125,-6.75,-2.125,9.90999984741211,-0.3899999856948852,-0.1299999952316284,9.800000190734863,-0.2399999946355819,-0.2399999946355819,45222505
1749119622531868024,4.25,-5.875,-0.5,9.949999809265137,-0.3799999952316284,-0.0799999982118606,9.789999961853027,-0.2399999946355819,-0.2599999904632568,45222531
1749119622540461823,1.25,-4.1875,0.5625,9.93000030517578,-0.25,-0.0599999986588954,9.789999961853027,-0.2399999946355819,-0.270000010728836,45222540
1749119622559107995,-2.3125,-2.4375,1.125,9.899999618530272,-0.209999993443489,-0.050000000745058,9.789999961853027,-0.25,-0.2800000011920929,45222559
1749119622580768495,-5.125,-1.625,1.8125,9.859999656677246,-0.209999993443489,-0.1800000071525573,9.789999961853027,-0.25,-0.2800000011920929,45222580
1749119622607120416,-7.3125,-1.5625,1.8125,9.800000190734863,-0.1400000005960464,-0.25,9.789999961853027,-0.2599999904632568,-0.2899999916553497,45222607
1749119622620275681,-9.5,-1.3125,1.1875,9.789999961853027,-0.1800000071525573,-0.2399999946355819,9.789999961853027,-0.2599999904632568,-0.2899999916553497,45222620
1749119622643322338,-10.5,-1.625,0.375,9.75,-0.3600000143051147,-0.2300000041723251,9.789999961853027,-0.2599999904632568,-0.3000000119209289,45222643
1749119622667272881,-10.3125,-2.375,0.375,9.779999732971191,-0.4000000059604645,-0.25,9.789999961853027,-0.2599999904632568,-0.3000000119209289,45222667
1749119622679969000,-11.1875,-2.0625,0.125,9.770000457763672,-0.3899999856948852,-0.1199999973177909,9.789999961853027,-0.2599999904632568,-0.3100000023841858,45222679
1749119622705904760,-11.75,-1.75,-0.0625,9.829999923706056,-0.550000011920929,-0.0599999986588954,9.789999961853027,-0.2599999904632568,-0.3199999928474426,45222705
1749119622718170616,-13.75,-1.25,-0.4375,9.81999969482422,-0.7099999785423279,-0.0900000035762786,9.789999961853027,-0.270000010728836,-0.3100000023841858,45222718
1749119622742003691,-12.875,-1.6875,-0.125,9.779999732971191,-0.8399999737739563,-0.1299999952316284,9.789999961853027,-0.270000010728836,-0.3199999928474426,45222742
1749119622768079611,-12.4375,-1.6875,0.0625,9.760000228881836,-0.9100000262260436,-0.1800000071525573,9.789999961853027,-0.270000010728836,-0.3300000131130218,45222768
1749119622790760101,-9.3125,-2.4375,0.1875,9.8100004196167,-0.9800000190734864,-0.2000000029802322,9.789999961853027,-0.2800000011920929,-0.3300000131130218,45222790
1749119622818071097,-7.625,-2.3125,0.3125,9.81999969482422,-0.9100000262260436,-0.2199999988079071,9.789999961853027,-0.3100000023841858,-0.3300000131130218,45222818
1749119622843010432,-5.1875,-2.75,0.0625,9.800000190734863,-0.9300000071525574,-0.2399999946355819,9.789999961853027,-0.3400000035762787,-0.3400000035762787,45222843
1749119622866893035,-2.8125,-2.6875,-0.125,9.890000343322754,-0.9100000262260436,-0.2899999916553497,9.789999961853027,-0.3600000143051147,-0.3499999940395355,45222866
1749119622890965441,-1.1875,-2.375,0.0625,9.90999984741211,-0.8600000143051147,-0.25,9.789999961853027,-0.3799999952316284,-0.3499999940395355,45222890
1749119622898938711,1.6875,-1.4375,0.3125,9.899999618530272,-0.800000011920929,-0.2300000041723251,9.789999961853027,-0.3899999856948852,-0.3499999940395355,45222898
1749119622914293090,3.375,-1.0,0.875,9.890000343322754,-0.7300000190734863,-0.2300000041723251,9.789999961853027,-0.4099999964237213,-0.3499999940395355,45222914
1749119622934842592,3.5,-0.8125,1.375,9.829999923706056,-0.5099999904632568,-0.2800000011920929,9.789999961853027,-0.4199999868869781,-0.3499999940395355,45222934
1749119622945815050,2.0625,-0.1875,1.0,9.8100004196167,-0.4199999868869781,-0.3100000023841858,9.789999961853027,-0.4199999868869781,-0.3499999940395355,45222945
1749119622961962686,1.75,0.0625,0.9375,9.8100004196167,-0.4099999964237213,-0.3499999940395355,9.789999961853027,-0.4300000071525574,-0.3499999940395355,45222961
1749119622979868921,0.9375,-0.0625,0.875,9.779999732971191,-0.3499999940395355,-0.3400000035762787,9.789999961853027,-0.4300000071525574,-0.3499999940395355,45222979
1749119622998114416,0.5,-0.3125,0.5625,9.779999732971191,-0.2899999916553497,-0.3100000023841858,9.789999961853027,-0.4300000071525574,-0.3499999940395355,45222998
1749119623016930146,-0.5,-0.0625,-0.1875,9.81999969482422,-0.3000000119209289,-0.3600000143051147,9.789999961853027,-0.4300000071525574,-0.3499999940395355,45223016
1749119623040480691,-1.0625,0.625,-0.8125,9.850000381469728,-0.4000000059604645,-0.3700000047683716,9.789999961853027,-0.4199999868869781,-0.3499999940395355,45223040
1749119623064184088,-0.9375,0.6875,-0.875,9.850000381469728,-0.3600000143051147,-0.3600000143051147,9.789999961853027,-0.4199999868869781,-0.3499999940395355,45223064
1749119623079023603,-1.1875,0.625,-0.9375,9.829999923706056,-0.3600000143051147,-0.3000000119209289,9.789999961853027,-0.4199999868869781,-0.3499999940395355,45223079
1749119623097014315,-1.375,0.75,-0.75,9.81999969482422,-0.3199999928474426,-0.209999993443489,9.789999961853027,-0.4099999964237213,-0.3499999940395355,45223097
1749119623118071732,-1.875,0.875,-0.75,9.850000381469728,-0.3000000119209289,-0.1899999976158142,9.789999961853027,-0.4099999964237213,-0.3400000035762787,45223118
1749119623138335369,-2.6875,1.125,-0.8125,9.84000015258789,-0.3300000131130218,-0.2300000041723251,9.789999961853027,-0.4099999964237213,-0.3400000035762787,45223138
1749119623158203232,-2.8125,1.5,-1.0625,9.800000190734863,-0.3899999856948852,-0.2599999904632568,9.789999961853027,-0.4000000059604645,-0.3300000131130218,45223158
1749119623178998470,-2.8125,2.0625,-1.125,9.81999969482422,-0.4600000083446502,-0.2899999916553497,9.789999961853027,-0.4000000059604645,-0.3300000131130218,45223178
1749119623202573455,-1.9375,2.625,-1.4375,9.81999969482422,-0.5400000214576721,-0.3400000035762787,9.789999961853027,-0.3899999856948852,-0.3199999928474426,45223202
1749119623216900701,-0.5,2.4375,-1.375,9.789999961853027,-0.6100000143051147,-0.270000010728836,9.789999961853027,-0.3899999856948852,-0.3100000023841858,45223216
1749119623268024537,0.9375,2.0625,-1.3125,9.8100004196167,-0.5699999928474426,-0.209999993443489,9.789999961853027,-0.3899999856948852,-0.3000000119209289,45223268
1749119623274932717,2.5,2.3125,-1.4375,9.829999923706056,-0.5699999928474426,-0.1899999976158142,9.789999961853027,-0.3899999856948852,-0.2899999916553497,45223274
1749119623287046989,3.75,2.5,-1.25,9.81999969482422,-0.5600000023841858,-0.1500000059604644,9.789999961853027,-0.3899999856948852,-0.2800000011920929,45223287
1749119623299966762,4.625,2.875,-1.375,9.829999923706056,-0.5400000214576721,-0.1700000017881393,9.789999961853027,-0.3799999952316284,-0.270000010728836,45223299
1749119623325005779,5.875,3.0,-1.0625,9.81999969482422,-0.4900000095367431,-0.1400000005960464,9.789999961853027,-0.3799999952316284,-0.2599999904632568,45223325
1749119623339171465,6.5625,3.0625,-1.125,9.859999656677246,-0.4799999892711639,-0.1500000059604644,9.789999961853027,-0.3799999952316284,-0.25,45223339
1749119623359745856,6.4375,3.125,-1.125,9.960000038146973,-0.5099999904632568,-0.1400000005960464,9.789999961853027,-0.3799999952316284,-0.2300000041723251,45223359
1749119623382035468,7.0625,3.5625,-1.0625,9.93000030517578,-0.550000011920929,-0.209999993443489,9.789999961853027,-0.3799999952316284,-0.2199999988079071,45223382
1749119623401885736,6.875,3.8125,-1.0625,9.800000190734863,-0.5,0.0199999995529651,9.789999961853027,-0.3700000047683716,-0.209999993443489,45223401
1749119623419083434,6.0,3.625,-1.0625,9.649999618530272,-0.6299999952316284,-0.0199999995529651,9.789999961853027,-0.3700000047683716,-0.1899999976158142,45223419
1749119623437893290,6.0,2.9375,-0.875,10.0600004196167,-0.8500000238418579,-0.3300000131130218,9.789999961853027,-0.3799999952316284,-0.1800000071525573,45223437
1749119623462220773,8.875,3.6875,-0.6875,9.630000114440918,-0.8399999737739563,-0.3199999928474426,9.789999961853027,-0.3799999952316284,-0.1700000017881393,45223462
1749119623480205142,10.5,2.4375,-0.125,10.020000457763672,-0.75,-0.4399999976158142,9.789999961853027,-0.3799999952316284,-0.1599999964237213,45223480
1749119623505003967,14.1875,3.4375,0.5625,10.050000190734863,-0.6000000238418579,-0.4600000083446502,9.789999961853027,-0.3899999856948852,-0.1500000059604644,45223505
1749119623529967060,15.9375,3.0625,1.375,9.899999618530272,-0.3899999856948852,-0.1899999976158142,9.789999961853027,-0.4000000059604645,-0.1400000005960464,45223529
1749119623538214585,15.0625,2.375,1.5625,9.81999969482422,-0.1800000071525573,-0.1700000017881393,9.789999961853027,-0.4000000059604645,-0.1299999952316284,45223538
1749119623562088172,13.625,3.3125,1.5,9.699999809265137,-0.0299999993294477,0.0199999995529651,9.789999961853027,-0.4099999964237213,-0.1199999973177909,45223562
1749119623581146811,11.375,4.625,0.75,9.630000114440918,-0.0199999995529651,0.2800000011920929,9.789999961853027,-0.4099999964237213,-0.1000000014901161,45223581
1749119623596754013,6.0,5.5,-0.4375,9.68000030517578,-0.1000000014901161,0.3100000023841858,9.789999961853027,-0.4099999964237213,-0.0799999982118606,45223596
1749119623616142513,1.875,6.25,-0.9375,9.789999961853027,-0.2199999988079071,-0.0199999995529651,9.789999961853027,-0.4099999964237213,-0.0599999986588954,45223616
1749119623642053724,0.4375,6.75,-1.0625,9.850000381469728,-0.2199999988079071,0.0099999997764825,9.789999961853027,-0.4000000059604645,-0.0399999991059303,45223642
1749119623667296721,0.0625,7.125,-1.3125,9.850000381469728,-0.2000000029802322,0.050000000745058,9.789999961853027,-0.4000000059604645,-0.0099999997764825,45223667
1749119623679047977,-0.8125,6.6875,-1.6875,9.869999885559082,-0.2399999946355819,0.1199999973177909,9.789999961853027,-0.3899999856948852,0.0,45223679
1749119623696744201,-2.25,6.4375,-1.6875,9.859999656677246,-0.2899999916553497,0.2599999904632568,9.789999961853027,-0.3799999952316284,0.0299999993294477,45223696
1749119623736610979,-5.625,7.375,-1.9375,9.899999618530272,-0.3100000023841858,0.4000000059604645,9.789999961853027,-0.3700000047683716,0.050000000745058,45223736
1749119623757317348,-9.1875,9.25,-2.0,9.859999656677246,-0.4099999964237213,0.4799999892711639,9.789999961853027,-0.3700000047683716,0.0900000035762786,45223757
1749119623765895011,-11.3125,10.75,-1.1875,9.8100004196167,-0.6299999952316284,0.5400000214576721,9.789999961853027,-0.3600000143051147,0.1299999952316284,45223765
1749119623780066764,-10.8125,11.875,0.3125,9.779999732971191,-0.699999988079071,0.5400000214576721,9.789999961853027,-0.3600000143051147,0.1700000017881393,45223780
1749119623797065704,-8.9375,12.125,2.0625,9.90999984741211,-0.5899999737739563,0.699999988079071,9.789999961853027,-0.3700000047683716,0.209999993443489,45223797
1749119623816964553,-7.75,13.4375,2.9375,9.880000114440918,-0.3700000047683716,0.6200000047683716,9.789999961853027,-0.3799999952316284,0.2599999904632568,45223816
1749119623839004522,-10.125,15.1875,2.75,9.760000228881836,-0.5400000214576721,0.6600000262260437,9.789999961853027,-0.4000000059604645,0.3100000023841858,45223839
1749119623863966679,-9.9375,16.1875,3.75,9.710000038146973,-0.6200000047683716,0.6200000047683716,9.789999961853027,-0.4099999964237213,0.3700000047683716,45223863
1749119623879256763,-8.4375,17.1875,5.75,9.75,-0.5199999809265137,0.6499999761581421,9.779999732971191,-0.4300000071525574,0.4300000071525574,45223879
1749119623900045700,-6.1875,18.75,9.25,9.90999984741211,-0.5,0.8399999737739563,9.779999732971191,-0.4600000083446502,0.4900000095367431,45223900
1749119623924081261,-4.9375,21.5625,12.9375,9.899999618530272,-0.7300000190734863,1.149999976158142,9.770000457763672,-0.5,0.5600000023841858,45223924
1749119623941191035,-3.75,25.0,16.4375,9.829999923706056,-0.7799999713897705,1.3200000524520874,9.760000228881836,-0.5600000023841858,0.6399999856948853,45223941
1749119623966924862,-5.1875,29.1875,20.4375,9.68000030517578,-0.959999978542328,1.3899999856948853,9.75,-0.6600000262260437,0.7799999713897705,45223966
1749119623979222794,-5.6875,33.75,25.0,9.640000343322754,-1.0399999618530271,1.4900000095367432,9.739999771118164,-0.699999988079071,0.8399999737739563,45223979
1749119624004678430,-7.0,38.5,30.4375,9.539999961853027,-1.25,1.4800000190734863,9.710000038146973,-0.8500000238418579,1.0199999809265137,45224004
1749119624028915845,-6.5625,43.0,35.625,9.470000267028809,-1.0800000429153442,1.7599999904632568,9.699999809265137,-0.9100000262260436,1.090000033378601,45224028
1749119624040299068,-6.6875,47.375,37.0,9.40999984741211,-1.149999976158142,1.7300000190734863,9.65999984741211,-1.0399999618530271,1.2599999904632568,45224040
1749119624059321066,-8.125,47.5625,35.6875,9.619999885559082,-1.100000023841858,1.5199999809265137,9.630000114440918,-1.159999966621399,1.409999966621399,45224059
1749119624080103223,-11.25,47.875,34.0625,9.800000190734863,-0.8299999833106995,1.3300000429153442,9.59000015258789,-1.2799999713897705,1.559999942779541,45224080
1749119624097021564,-9.75,45.25,31.5625,9.890000343322754,-0.8999999761581421,1.5199999809265137,9.550000190734863,-1.3899999856948853,1.7100000381469729,45224097
1749119624129692535,-3.0625,39.0,29.1875,10.149999618530272,-1.399999976158142,1.149999976158142,9.489999771118164,-1.5299999713897705,1.899999976158142,45224129
1749119624160129052,4.9375,36.375,26.9375,9.880000114440918,-1.7799999713897705,1.5,9.470000267028809,-1.5700000524520874,1.9600000381469729,45224160
1749119624182122896,8.5,31.625,24.5,9.56999969482422,-1.9800000190734863,1.830000042915344,9.420000076293944,-1.6799999475479126,2.109999895095825,45224182
1749119624206206775,9.8125,24.375,21.4375,9.460000038146973,-2.130000114440918,1.919999957084656,9.40999984741211,-1.7100000381469729,2.1600000858306885,45224206
1749119624249263264,9.625,16.375,16.875,9.140000343322754,-2.220000028610229,1.830000042915344,9.380000114440918,-1.7599999904632568,2.220000028610229,45224249
1749119624249685486,4.6875,9.375,11.875,8.800000190734863,-2.0899999141693115,1.7999999523162842,9.359999656677246,-1.8200000524520876,2.2699999809265137,45224249
1749119624262173639,3.625,1.375,9.875,8.869999885559082,-1.6200000047683716,1.7599999904632568,9.359999656677246,-1.830000042915344,2.2699999809265137,45224262
1749119624276064907,5.8125,-3.125,10.0,8.619999885559082,-1.4299999475479126,1.7400000095367432,9.350000381469728,-1.870000004768372,2.259999990463257,45224276
1749119624285063015,8.0,-6.125,9.6875,8.729999542236328,-1.4900000095367432,1.8600000143051147,9.350000381469728,-1.8799999952316284,2.259999990463257,45224285
1749119624297166937,17.4375,-8.0625,8.25,9.010000228881836,-1.7000000476837158,2.430000066757202,9.350000381469728,-1.899999976158142,2.240000009536743,45224297
1749119624323158880,20.4375,-10.1875,7.8125,9.390000343322754,-1.7599999904632568,2.759999990463257,9.350000381469728,-1.909999966621399,2.2100000381469727,45224323
1749119624346925775,22.3125,-11.3125,7.8125,9.369999885559082,-1.7599999904632568,2.759999990463257,9.350000381469728,-1.919999957084656,2.200000047683716,45224346
1749119624363146859,21.6875,-10.75,7.75,9.470000267028809,-1.409999966621399,2.809999942779541,9.359999656677246,-1.9299999475479128,2.1700000762939453,45224363
1749119624388232357,21.1875,-7.6875,7.875,9.40999984741211,-1.3899999856948853,2.880000114440918,9.359999656677246,-1.9299999475479128,2.1700000762939453,45224388
1749119624404128123,18.0625,-6.75,6.4375,9.539999961853027,-1.350000023841858,2.809999942779541,9.359999656677246,-1.940000057220459,2.1600000858306885,45224404
1749119624420215731,16.0,-5.0,7.9375,9.449999809265137,-1.399999976158142,2.7799999713897705,9.359999656677246,-1.940000057220459,2.1700000762939453,45224420
1749119624444351771,13.875,-4.5625,9.0,9.579999923706056,-1.7599999904632568,2.640000104904175,9.350000381469728,-1.940000057220459,2.190000057220459,45224444
1749119624461877889,11.4375,-2.5,9.4375,9.40999984741211,-2.0,2.4600000381469727,9.350000381469728,-1.9700000286102293,2.180000066757202,45224461
1749119624479193209,11.3125,-0.6875,11.6875,9.329999923706056,-1.950000047683716,2.4600000381469727,9.34000015258789,-1.9800000190734863,2.190000057220459,45224479
1749119624499819488,11.9375,-0.1875,13.375,9.34000015258789,-1.9600000381469729,2.4600000381469727,9.34000015258789,-2.0199999809265137,2.200000047683716,45224499
1749119624560062043,11.25,0.625,14.875,9.279999732971191,-2.0199999809265137,2.4600000381469727,9.31999969482422,-2.049999952316284,2.2100000381469727,45224560
1749119624585988644,12.375,1.4375,16.375,9.210000038146973,-2.039999961853028,2.4800000190734863,9.3100004196167,-2.0899999141693115,2.2300000190734863,45224585
1749119624609949895,11.4375,1.5,17.0625,9.270000457763672,-2.069999933242798,2.380000114440918,9.300000190734863,-2.140000104904175,2.240000009536743,45224609
1749119624619965424,12.625,2.8125,18.0625,9.25,-2.109999895095825,2.490000009536743,9.279999732971191,-2.180000066757202,2.259999990463257,45224619
1749119624633545992,14.1875,1.5625,18.75,9.25,-2.109999895095825,2.609999895095825,9.270000457763672,-2.2300000190734863,2.2799999713897705,45224633
1749119624639347626,14.1875,-0.1875,18.625,9.300000190734863,-2.180000066757202,2.4200000762939453,9.25,-2.2699999809265137,2.299999952316284,45224639
1749119624657907224,16.0,-0.375,19.3125,9.199999809265137,-2.390000104904175,2.5899999141693115,9.239999771118164,-2.319999933242798,2.309999942779541,45224657
1749119624661012897,18.1875,-0.6875,21.0625,9.329999923706056,-2.3399999141693115,2.539999961853028,9.220000267028809,-2.369999885559082,2.3299999237060547,45224661
1749119624682132658,24.375,1.125,22.0,9.170000076293944,-2.430000066757202,2.5899999141693115,9.199999809265137,-2.4200000762939453,2.3499999046325684,45224682
1749119624699075991,25.0625,0.25,22.1875,9.119999885559082,-2.3299999237060547,2.619999885559082,9.18000030517578,-2.470000028610229,2.380000114440918,45224699
1749119624723816214,21.1875,0.8125,20.8125,9.029999732971191,-2.2699999809265137,2.5299999713897705,9.15999984741211,-2.509999990463257,2.400000095367432,45224723
1749119624736198820,19.25,0.5625,19.125,8.90999984741211,-2.200000047683716,2.630000114440918,9.149999618530272,-2.549999952316284,2.430000066757202,45224736
1749119624761085894,17.5,-1.6875,18.0,8.90999984741211,-2.319999933242798,2.390000104904175,9.130000114440918,-2.5899999141693115,2.440000057220459,45224761
1749119624779926235,20.125,-1.375,16.875,8.75,-2.4100000858306885,2.4600000381469727,9.119999885559082,-2.619999885559082,2.450000047683716,45224779
1749119624801121619,21.0,-2.1875,15.0,8.649999618530273,-2.390000104904175,2.5,9.109999656677246,-2.650000095367432,2.470000028610229,45224801
1749119624840066118,17.9375,-4.1875,12.8125,8.550000190734863,-2.2799999713897705,2.450000047683716,9.100000381469728,-2.6700000762939453,2.4800000190734863,45224840
1749119624866133990,16.4375,-7.4375,10.75,8.569999694824219,-2.220000028610229,2.4200000762939453,9.09000015258789,-2.690000057220459,2.470000028610229,45224866
1749119624880123514,16.3125,-9.5625,7.75,8.609999656677246,-2.200000047683716,2.299999952316284,9.09000015258789,-2.700000047683716,2.4600000381469727,45224880
1749119624889050693,12.5,-7.5,2.75,8.720000267028809,-2.490000009536743,2.5199999809265137,9.100000381469728,-2.700000047683716,2.450000047683716,45224889
1749119624895826828,6.0,-6.0,-1.0,8.649999618530273,-2.440000057220459,2.539999961853028,9.100000381469728,-2.690000057220459,2.440000057220459,45224895
1749119624936900414,2.9375,-6.375,-4.375,8.260000228881836,-2.440000057220459,2.5299999713897705,9.119999885559082,-2.6600000858306885,2.4200000762939453,45224936
1749119624953933732,2.8125,-7.8125,-10.1875,8.1899995803833,-2.559999942779541,2.680000066757202,9.119999885559082,-2.640000104904175,2.4100000858306885,45224953
1749119624963241562,-5.5625,-10.3125,-19.125,8.699999809265137,-2.5899999141693115,2.569999933242798,9.15999984741211,-2.559999942779541,2.3499999046325684,45224963
1749119624978141293,-13.1875,-13.75,-23.75,8.850000381469727,-2.5199999809265137,2.4800000190734863,9.18000030517578,-2.5299999713897705,2.3299999237060547,45224978
1749119625016886574,-15.5,-15.9375,-23.625,9.260000228881836,-2.5,2.1700000762939453,9.210000038146973,-2.470000028610229,2.259999990463257,45225016
1749119625022245846,-4.9375,-16.9375,-21.9375,9.199999809265137,-2.5,1.7799999713897705,9.260000228881836,-2.369999885559082,2.180000066757202,45225022
1749119625058811814,-3.5,-18.0,-22.25,9.020000457763672,-2.430000066757202,1.8799999952316284,9.270000457763672,-2.3399999141693115,2.150000095367432,45225058
1749119625071065802,-12.4375,-22.125,-30.0,8.970000267028809,-1.8899999856948853,2.059999942779541,9.329999923706056,-2.2100000381469727,2.0299999713897705,45225071
1749119625080984911,-16.375,-24.75,-38.25,8.8100004196167,-1.9900000095367432,2.2100000381469727,9.350000381469728,-2.150000095367432,1.9900000095367432,45225080
1749119625101027903,-20.0,-31.375,-37.9375,9.130000114440918,-2.680000066757202,1.9700000286102293,9.399999618530272,-2.039999961853028,1.8799999952316284,45225101
1749119625122161852,-16.5,-36.5625,-36.3125,10.34000015258789,-2.9600000381469727,2.319999933242798,9.470000267028809,-1.8899999856948853,1.7000000476837158,45225122
1749119625138087143,3.9375,-31.75,-32.5625,10.270000457763672,-2.5899999141693115,2.740000009536743,9.489999771118164,-1.830000042915344,1.649999976158142,45225138
1749119625162971461,-4.875,-34.5625,-29.25,10.369999885559082,-2.789999961853028,2.690000057220459,9.539999961853027,-1.690000057220459,1.4800000190734863,45225162
1749119625178170510,-20.25,-33.125,-26.5,10.09000015258789,-2.25,3.369999885559082,9.550000190734863,-1.659999966621399,1.4199999570846558,45225178
1749119625200815862,-14.125,-26.6875,-22.8125,9.960000038146973,-2.109999895095825,2.819999933242798,9.579999923706056,-1.590000033378601,1.3200000524520874,45225200
1749119625223037047,1.9375,-21.3125,-17.3125,9.510000228881836,-1.440000057220459,1.1299999952316284,9.609999656677246,-1.5,1.2100000381469729,45225223
1749119625262052252,2.75,-17.75,-13.4375,9.170000076293944,-1.350000023841858,1.1699999570846558,9.619999885559082,-1.4800000190734863,1.1799999475479126,45225262
1749119625264933657,-7.125,-20.5625,-11.125,9.359999656677246,-1.4900000095367432,1.3899999856948853,9.640000343322754,-1.4299999475479126,1.0800000429153442,45225264
1749119625277201825,-9.75,-21.3125,-9.375,9.420000076293944,-1.4500000476837158,1.149999976158142,9.640000343322754,-1.409999966621399,1.0399999618530271,45225277
1749119625302110535,-5.9375,-19.0625,-8.375,9.539999961853027,-1.5199999809265137,0.8199999928474426,9.649999618530272,-1.3899999856948853,0.9700000286102296,45225302
1749119625322734961,0.6875,-17.5625,-8.0,9.869999885559082,-1.309999942779541,0.6000000238418579,9.670000076293944,-1.350000023841858,0.8899999856948853,45225322
1749119625344189589,2.375,-17.375,-8.0,9.9399995803833,-1.0099999904632568,0.7799999713897705,9.670000076293944,-1.340000033378601,0.8600000143051147,45225344
1749119625363156099,1.375,-18.0,-7.75,9.81999969482422,-0.8999999761581421,0.8500000238418579,9.68000030517578,-1.2999999523162842,0.7699999809265137,45225363
1749119625379923537,-0.625,-18.1875,-7.9375,9.729999542236328,-0.9300000071525574,0.75,9.6899995803833,-1.2799999713897705,0.7400000095367432,45225379
1749119625401965885,-2.3125,-16.8125,-7.75,9.649999618530272,-0.6399999856948853,0.6600000262260437,9.699999809265137,-1.2599999904632568,0.6899999976158142,45225401
1749119625425215937,-5.8125,-15.1875,-7.875,9.739999771118164,-0.9200000166893004,0.6200000047683716,9.710000038146973,-1.2200000286102295,0.6100000143051147,45225425
1749119625456963326,-7.0625,-13.5625,-7.125,9.720000267028809,-1.090000033378601,0.75,9.710000038146973,-1.2100000381469729,0.5899999737739563,45225456
1749119625462158300,-9.3125,-13.375,-5.4375,9.720000267028809,-1.3300000429153442,0.8299999833106995,9.720000267028809,-1.1799999475479126,0.5099999904632568,45225462
1749119625496030588,-10.375,-12.9375,-3.375,9.710000038146973,-1.399999976158142,0.8199999928474426,9.720000267028809,-1.1799999475479126,0.4900000095367431,45225496
1749119625500914945,-11.5,-11.9375,-2.125,9.68000030517578,-1.6100000143051147,0.7300000190734863,9.720000267028809,-1.1699999570846558,0.449999988079071,45225500
1749119625525148429,-9.625,-10.4375,-1.4375,9.829999923706056,-1.649999976158142,0.4000000059604645,9.720000267028809,-1.1699999570846558,0.3899999856948852,45225525
1749119625545950935,-8.0,-9.25,-1.1875,9.779999732971191,-1.6100000143051147,0.3600000143051147,9.720000267028809,-1.159999966621399,0.3700000047683716,45225545
1749119625569898441,-5.75,-8.6875,-1.3125,9.770000457763672,-1.3799999952316284,0.270000010728836,9.729999542236328,-1.159999966621399,0.3199999928474426,45225569
1749119625579872704,-5.0,-8.6875,-1.6875,9.699999809265137,-1.350000023841858,0.2199999988079071,9.729999542236328,-1.159999966621399,0.3100000023841858,45225579
1749119625601202222,-3.75,-8.75,-2.3125,9.720000267028809,-1.399999976158142,0.2199999988079071,9.729999542236328,-1.149999976158142,0.2599999904632568,45225601
1749119625621961747,-1.125,-9.5,-2.3125,9.649999618530272,-1.2999999523162842,0.2199999988079071,9.729999542236328,-1.149999976158142,0.2300000041723251,45225621
1749119625640301399,-0.0625,-10.5,-2.625,9.640000343322754,-1.2999999523162842,0.25,9.729999542236328,-1.1399999856948853,0.209999993443489,45225640
1749119625662367774,0.75,-10.5,-3.75,9.600000381469728,-1.2899999618530271,0.1700000017881393,9.729999542236328,-1.1299999952316284,0.1599999964237213,45225662
1749119625678063265,2.75,-11.25,-4.375,9.630000114440918,-1.2999999523162842,0.0700000002980232,9.739999771118164,-1.1200000047683716,0.1400000005960464,45225678
1749119625700240769,3.9375,-11.6875,-4.75,9.649999618530272,-1.25,-0.0399999991059303,9.739999771118164,-1.1100000143051147,0.1099999994039535,45225700
1749119625722190346,5.5,-12.3125,-5.3125,9.670000076293944,-1.25,-0.050000000745058,9.739999771118164,-1.090000033378601,0.0399999991059303,45225722
1749119625746308815,5.6875,-12.75,-5.6875,9.699999809265137,-1.25,-0.0700000002980232,9.739999771118164,-1.0800000429153442,0.0199999995529651,45225746
1749119625761243757,5.0625,-12.625,-6.125,9.739999771118164,-1.1699999570846558,0.0199999995529651,9.739999771118164,-1.0499999523162842,-0.0299999993294477,45225761
1749119625777875854,4.6875,-12.3125,-6.5,9.720000267028809,-1.2200000286102295,0.0099999997764825,9.75,-1.0399999618530271,-0.0399999991059303,45225777
1749119625826044209,4.4375,-11.9375,-6.625,9.789999961853027,-1.1699999570846558,-0.0599999986588954,9.75,-1.0199999809265137,-0.0799999982118606,45225826
1749119625832907428,3.8125,-11.6875,-6.6875,9.850000381469728,-0.9800000190734864,-0.2300000041723251,9.75,-0.9900000095367432,-0.1400000005960464,45225832
1749119625844156141,3.1875,-11.0625,-6.5,9.8100004196167,-1.0499999523162842,-0.2199999988079071,9.75,-0.9800000190734864,-0.1599999964237213,45225844
1749119625863354109,1.125,-11.125,-5.875,9.760000228881836,-0.8399999737739563,-0.2899999916553497,9.75,-0.949999988079071,-0.209999993443489,45225863
1749119625886017657,-2.8125,-11.375,-5.6875,9.800000190734863,-0.8700000047683716,-0.3199999928474426,9.75,-0.9399999976158142,-0.2300000041723251,45225886
1749119625896974434,-5.5625,-11.1875,-5.375,9.789999961853027,-0.800000011920929,-0.3499999940395355,9.75,-0.9200000166893004,-0.270000010728836,45225896
1749119625923016736,-8.1875,-11.0,-5.6875,9.829999923706056,-0.5199999809265137,-0.4300000071525574,9.760000228881836,-0.8799999952316284,-0.3300000131130218,45225923
1749119625947974517,-10.375,-9.0,-6.25,9.84000015258789,-0.4399999976158142,-0.5199999809265137,9.760000228881836,-0.8700000047683716,-0.3400000035762787,45225947
1749119625962063508,-15.0625,-7.8125,-7.4375,9.850000381469728,-0.5,-0.6600000262260437,9.760000228881836,-0.8299999833106995,-0.3899999856948852,45225962
1749119625984033439,-16.625,-6.5,-7.375,9.8100004196167,-0.4799999892711639,-0.7599999904632568,9.760000228881836,-0.8199999928474426,-0.4099999964237213,45225984
1749119626005759521,-20.75,-6.75,-8.3125,9.920000076293944,-0.4600000083446502,-0.6100000143051147,9.760000228881836,-0.7599999904632568,-0.4600000083446502,45226005
1749119626030135611,-21.75,-6.375,-8.75,9.920000076293944,-0.4799999892711639,-0.6600000262260437,9.760000228881836,-0.7200000286102295,-0.4900000095367431,45226030
1749119626041311988,-24.5625,-5.875,-9.8125,9.899999618530272,-0.4000000059604645,-0.6499999761581421,9.760000228881836,-0.699999988079071,-0.5,45226041
1749119626075945162,-25.875,-4.5625,-10.4375,9.6899995803833,-0.4199999868869781,-0.5400000214576721,9.770000457763672,-0.6399999856948853,-0.5400000214576721,45226075
1749119626084358406,-27.5,-4.0,-10.375,9.869999885559082,-0.4399999976158142,-0.6200000047683716,9.770000457763672,-0.6200000047683716,-0.550000011920929,45226084
1749119626109416315,-29.25,-2.25,-9.9375,9.739999771118164,-0.6299999952316284,-0.5799999833106995,9.770000457763672,-0.5799999833106995,-0.5600000023841858,45226109
1749119626136150701,-29.5,-2.25,-9.1875,9.949999809265137,-0.7799999713897705,-0.5400000214576721,9.770000457763672,-0.5199999809265137,-0.5799999833106995,45226136
1749119626160889767,-27.8125,-1.9375,-8.5,9.949999809265137,-0.8100000023841858,-0.550000011920929,9.770000457763672,-0.5099999904632568,-0.5899999737739563,45226160
1749119626166204627,-23.0625,-0.5625,-8.4375,9.68000030517578,-0.8600000143051147,-0.5299999713897705,9.770000457763672,-0.4699999988079071,-0.5899999737739563,45226166
1749119626179121421,-19.9375,0.5,-8.625,9.710000038146973,-0.8600000143051147,-0.6100000143051147,9.770000457763672,-0.4600000083446502,-0.5899999737739563,45226179
1749119626199893133,-16.4375,0.1875,-8.375,9.6899995803833,-0.8700000047683716,-0.7300000190734863,9.770000457763672,-0.4399999976158142,-0.6000000238418579,45226199
1749119626223996738,-10.9375,-1.25,-7.5,9.729999542236328,-0.800000011920929,-0.6700000166893005,9.770000457763672,-0.4199999868869781,-0.6100000143051147,45226223
1749119626249184345,-7.3125,-1.1875,-7.5625,9.739999771118164,-0.75,-0.6200000047683716,9.770000457763672,-0.4099999964237213,-0.6100000143051147,45226249
1749119626262219075,-3.0625,-0.25,-8.375,9.81999969482422,-0.6700000166893005,-0.6499999761581421,9.770000457763672,-0.3799999952316284,-0.6200000047683716,45226262
1749119626278155128,-0.875,-0.4375,-8.25,9.850000381469728,-0.6399999856948853,-0.6800000071525574,9.770000457763672,-0.3700000047683716,-0.6200000047683716,45226278
1749119626300026364,1.9375,-0.75,-8.1875,9.770000457763672,-0.5699999928474426,-0.6700000166893005,9.779999732971191,-0.3400000035762787,-0.6200000047683716,45226300
1749119626321337500,2.625,-1.3125,-8.3125,9.920000076293944,-0.4300000071525574,-0.5899999737739563,9.779999732971191,-0.3100000023841858,-0.6299999952316284,45226321
1749119626344042811,3.0,-1.125,-8.25,9.829999923706056,-0.4900000095367431,-0.5899999737739563,9.779999732971191,-0.3000000119209289,-0.6299999952316284,45226344
1749119626361851100,3.0625,-0.5625,-7.4375,9.81999969482422,-0.6399999856948853,-0.4000000059604645,9.779999732971191,-0.270000010728836,-0.6299999952316284,45226361
1749119626377014439,2.4375,-0.3125,-7.1875,9.81999969482422,-0.6299999952316284,-0.3899999856948852,9.779999732971191,-0.2599999904632568,-0.6299999952316284,45226377
1749119626400981553,4.3125,0.0,-5.9375,9.779999732971191,-0.5199999809265137,-0.2899999916553497,9.779999732971191,-0.2399999946355819,-0.6200000047683716,45226400
1749119626421945559,3.8125,0.25,-6.375,9.760000228881836,-0.3700000047683716,-0.0299999993294477,9.779999732971191,-0.2300000041723251,-0.6100000143051147,45226421
1749119626445944680,3.125,-0.1875,-6.25,9.729999542236328,-0.2800000011920929,-0.0399999991059303,9.779999732971191,-0.2199999988079071,-0.6000000238418579,45226445
1749119626462227441,0.25,0.1875,-7.3125,9.710000038146973,-0.2199999988079071,-0.1099999994039535,9.779999732971191,-0.1899999976158142,-0.5799999833106995,45226462
1749119626485193858,0.0625,-0.125,-7.6875,9.710000038146973,-0.2199999988079071,-0.1299999952316284,9.779999732971191,-0.1800000071525573,-0.5699999928474426,45226485
1749119626514968179,-0.5625,-0.4375,-8.4375,9.739999771118164,-0.1700000017881393,-0.1199999973177909,9.779999732971191,-0.1500000059604644,-0.5600000023841858,45226514
1749119626528184027,-2.125,-1.1875,-9.375,9.729999542236328,-0.3100000023841858,-0.2800000011920929,9.789999961853027,-0.1099999994039535,-0.550000011920929,45226528
1749119626540104320,-2.4375,-1.5,-10.0,9.739999771118164,-0.3400000035762787,-0.270000010728836,9.789999961853027,-0.1000000014901161,-0.5400000214576721,45226540
1749119626561149654,-3.125,-1.6875,-10.8125,9.84000015258789,-0.3899999856948852,-0.2000000029802322,9.789999961853027,-0.050000000745058,-0.5400000214576721,45226561
1749119626575834068,-3.5625,-1.625,-10.9375,9.829999923706056,-0.4099999964237213,-0.2399999946355819,9.789999961853027,-0.0399999991059303,-0.5400000214576721,45226575
1749119626596080782,-4.875,-1.875,-10.625,9.800000190734863,-0.5199999809265137,-0.3300000131130218,9.789999961853027,-0.0199999995529651,-0.5299999713897705,45226596
1749119626623011855,-4.9375,-2.1875,-10.1875,9.789999961853027,-0.4600000083446502,-0.3100000023841858,9.789999961853027,0.0,-0.5299999713897705,45226623
1749119626644954142,-4.6875,-1.9375,-10.0625,9.779999732971191,-0.4699999988079071,-0.3799999952316284,9.789999961853027,0.0,-0.5299999713897705,45226644
1749119626668910797,-7.0625,-1.6875,-10.375,9.8100004196167,-0.5199999809265137,-0.4300000071525574,9.789999961853027,0.0299999993294477,-0.5299999713897705,45226668
1749119626676061363,-7.3125,-1.625,-10.375,9.760000228881836,-0.5299999713897705,-0.449999988079071,9.789999961853027,0.0299999993294477,-0.5299999713897705,45226676
1749119626695870426,-7.1875,-1.6875,-10.4375,9.800000190734863,-0.7300000190734863,-0.7400000095367432,9.789999961853027,0.0399999991059303,-0.5400000214576721,45226695
1749119626723207911,-2.875,-1.75,-10.625,9.760000228881836,-0.6299999952316284,-0.9100000262260436,9.789999961853027,0.0900000035762786,-0.550000011920929,45226723
1749119626744635566,-1.8125,-3.25,-10.6875,9.75,-0.5099999904632568,-0.8999999761581421,9.789999961853027,0.1099999994039535,-0.550000011920929,45226744
1749119626760910444,0.5,-4.125,-12.4375,9.739999771118164,-0.050000000745058,-0.3700000047683716,9.779999732971191,0.1700000017881393,-0.5699999928474426,45226760
1749119626786086516,0.5,-3.0625,-13.125,9.760000228881836,0.0299999993294477,-0.270000010728836,9.779999732971191,0.1899999976158142,-0.5799999833106995,45226786
1749119626802181906,-4.125,-2.75,-14.625,9.729999542236328,-0.1500000059604644,-0.1800000071525573,9.779999732971191,0.2599999904632568,-0.5899999737739563,45226802
1749119626824132791,-4.4375,-2.9375,-14.3125,9.68000030517578,-0.5,-0.3300000131130218,9.779999732971191,0.3100000023841858,-0.6000000238418579,45226824
1749119626840745371,-3.6875,-3.0,-13.5,9.670000076293944,-0.5600000023841858,-0.3600000143051147,9.779999732971191,0.3300000131130218,-0.6100000143051147,45226840
1749119626862214440,-2.5625,-2.625,-11.8125,9.850000381469728,-0.4699999988079071,-0.2599999904632568,9.770000457763672,0.4000000059604645,-0.6200000047683716,45226862
1749119626879000137,-1.625,-2.1875,-11.25,9.880000114440918,-0.3700000047683716,-0.2899999916553497,9.770000457763672,0.4199999868869781,-0.6200000047683716,45226879
1749119626897750917,-0.6875,-1.625,-10.4375,9.859999656677246,-0.1299999952316284,-0.4900000095367431,9.770000457763672,0.4099999964237213,-0.6100000143051147,45226897
1749119626921858221,-1.75,-0.25,-8.625,9.899999618530272,0.1199999973177909,-0.5799999833106995,9.770000457763672,0.449999988079071,-0.6200000047683716,45226921
1749119626938030811,-2.375,0.1875,-7.6875,10.039999961853027,0.2399999946355819,-0.6200000047683716,9.770000457763672,0.4699999988079071,-0.6200000047683716,45226938
1749119626961211250,-2.75,2.5,-4.6875,10.079999923706056,0.6600000262260437,-0.5,9.770000457763672,0.5,-0.6100000143051147,45226961
1749119626984209000,-3.6875,3.0625,-3.9375,10.079999923706056,0.8100000023841858,-0.4699999988079071,9.770000457763672,0.5,-0.6000000238418579,45226984
1749119627006171142,-8.0,6.0625,-3.4375,10.079999923706056,0.9800000190734864,-0.4099999964237213,9.770000457763672,0.5199999809265137,-0.5799999833106995,45227006
1749119627020252400,-11.375,8.5625,-3.375,10.119999885559082,0.9100000262260436,-0.3499999940395355,9.770000457763672,0.5400000214576721,-0.550000011920929,45227020
1749119627044936631,-11.6875,9.5,-3.1875,10.140000343322754,0.7900000214576721,-0.2899999916553497,9.770000457763672,0.5400000214576721,-0.5299999713897705,45227044
1749119627062453806,-12.8125,12.625,-2.4375,9.970000267028809,0.7099999785423279,-0.2399999946355819,9.770000457763672,0.5600000023841858,-0.4600000083446502,45227062
1749119627124767061,-13.4375,12.9375,-2.5625,9.90999984741211,0.5899999737739563,-0.270000010728836,9.770000457763672,0.5699999928474426,-0.4399999976158142,45227124
1749119627136899433,-15.8125,13.3125,-3.0,9.859999656677246,0.6899999976158142,-0.2599999904632568,9.779999732971191,0.5899999737739563,-0.3700000047683716,45227136
1749119627154920143,-16.375,14.0625,-2.75,9.81999969482422,0.5899999737739563,-0.209999993443489,9.779999732971191,0.6000000238418579,-0.3199999928474426,45227154
1749119627159931132,-16.0,14.25,-2.6875,9.859999656677246,0.5099999904632568,-0.1000000014901161,9.779999732971191,0.6000000238418579,-0.2899999916553497,45227159
1749119627169021983,-15.5625,15.5,-1.8125,9.779999732971191,0.7099999785423279,0.1199999973177909,9.779999732971191,0.6200000047683716,-0.209999993443489,45227169
1749119627178828244,-15.5,15.8125,-1.625,9.710000038146973,0.1899999976158142,0.0299999993294477,9.779999732971191,0.6200000047683716,-0.1800000071525573,45227178
1749119627200232580,-15.125,16.75,-1.375,9.699999809265137,0.3499999940395355,0.1199999973177909,9.779999732971191,0.6200000047683716,-0.1199999973177909,45227200
1749119627222061888,-13.625,17.375,0.875,9.68000030517578,0.3000000119209289,0.1500000059604644,9.779999732971191,0.6200000047683716,-0.0299999993294477,45227222
1749119627239804223,-12.875,18.0,1.4375,9.6899995803833,0.3600000143051147,0.2399999946355819,9.779999732971191,0.6100000143051147,0.0,45227239
1749119627261326796,-13.625,19.3125,3.6875,9.789999961853027,0.2800000011920929,0.4699999988079071,9.779999732971191,0.5899999737739563,0.1000000014901161,45227261
1749119627278847094,-13.5625,20.4375,4.25,9.890000343322754,0.3499999940395355,0.5400000214576721,9.779999732971191,0.5799999833106995,0.1299999952316284,45227278
1749119627304821679,-15.125,24.6875,8.1875,10.109999656677246,0.449999988079071,0.8700000047683716,9.779999732971191,0.550000011920929,0.25,45227304
1749119627321981949,-18.625,29.8125,11.625,10.140000343322754,0.0900000035762786,0.9300000071525574,9.779999732971191,0.5099999904632568,0.3499999940395355,45227321
1749119627343972034,-19.25,32.8125,13.25,10.149999618530272,0.050000000745058,1.1699999570846558,9.779999732971191,0.4900000095367431,0.4099999964237213,45227343
1749119627362371538,-20.75,42.75,21.5,10.09000015258789,-0.1500000059604644,1.559999942779541,9.770000457763672,0.3899999856948852,0.6000000238418579,45227362
1749119627411849276,-21.0625,46.9375,25.0,10.039999961853027,-0.209999993443489,1.8799999952316284,9.770000457763672,0.3499999940395355,0.6800000071525574,45227411
1749119627420102126,-21.0625,59.3125,35.0,10.020000457763672,-0.4699999988079071,2.259999990463257,9.75,0.1800000071525573,0.959999978542328,45227420
1749119627436004543,-18.1875,68.25,40.0625,9.920000076293944,-0.4300000071525574,2.319999933242798,9.729999542236328,0.050000000745058,1.1799999475479126,45227436
1749119627456843947,-20.5625,71.75,42.0,9.9399995803833,-0.6299999952316284,2.25,9.720000267028809,-0.0199999995529651,1.2999999523162842,45227456
1749119627464074404,-34.1875,72.8125,48.125,9.739999771118164,-0.7599999904632568,1.809999942779541,9.65999984741211,-0.2599999904632568,1.649999976158142,45227464
1749119627497404261,-36.75,68.3125,49.8125,9.81999969482422,-0.949999988079071,1.2699999809265137,9.630000114440918,-0.3600000143051147,1.7599999904632568,45227497
1749119627511862571,-26.3125,49.0,50.375,9.40999984741211,-1.75,0.6399999856948853,9.56999969482422,-0.6299999952316284,2.0199999809265137,45227511
1749119627520976504,-16.8125,34.0,48.0625,9.25,-1.7599999904632568,0.6800000071525574,9.529999732971191,-0.800000011920929,2.140000104904175,45227520
1749119627541805554,-10.0625,24.8125,46.9375,9.289999961853027,-1.5800000429153442,0.5699999928474426,9.510000228881836,-0.8799999952316284,2.180000066757202,45227541
1749119627566029761,22.375,2.0,44.4375,9.279999732971191,-1.3799999952316284,0.4600000083446502,9.479999542236328,-1.090000033378601,2.2300000190734863,45227566
1749119627577030859,37.875,-4.5625,43.5625,9.859999656677246,-0.699999988079071,0.449999988079071,9.470000267028809,-1.1399999856948853,2.2300000190734863,45227577
1749119627606039813,67.5625,-10.0625,34.75,9.6899995803833,0.4399999976158142,1.9700000286102293,9.460000038146973,-1.2599999904632568,2.220000028610229,45227606
1749119627620839517,57.0625,-11.0,28.9375,9.40999984741211,0.1299999952316284,2.609999895095825,9.460000038146973,-1.309999942779541,2.220000028610229,45227620
1749119627636032040,50.875,-13.3125,27.25,9.25,0.0299999993294477,2.7300000190734863,9.449999809265137,-1.3300000429153442,2.2100000381469727,45227636
1749119627661375033,39.125,-20.8125,25.5,9.220000267028809,0.25,2.369999885559082,9.460000038146973,-1.409999966621399,2.150000095367432,45227661
1749119627676721010,35.6875,-20.5,25.4375,9.1899995803833,-0.1599999964237213,2.049999952316284,9.460000038146973,-1.440000057220459,2.119999885559082,45227676
1749119627701289237,27.8125,-19.625,27.125,9.149999618530272,-1.3300000429153442,1.4700000286102295,9.460000038146973,-1.5399999618530271,2.049999952316284,45227701
1749119627726309801,31.9375,-22.6875,26.1875,9.34000015258789,-1.4800000190734863,1.559999942779541,9.460000038146973,-1.600000023841858,1.9900000095367432,45227726
1749119627737175579,36.3125,-23.125,26.6875,9.449999809265137,-1.4199999570846558,1.690000057220459,9.460000038146973,-1.6299999952316284,1.9700000286102293,45227737
1749119627762098647,50.8125,-19.8125,31.8125,9.539999961853027,-1.9900000095367432,2.1700000762939453,9.460000038146973,-1.7300000190734863,1.899999976158142,45227762
1749119627780815607,53.8125,-19.6875,33.8125,9.789999961853027,-2.259999990463257,2.150000095367432,9.449999809265137,-1.7699999809265137,1.8899999856948853,45227780
1749119627821036239,62.5625,-13.5,38.625,10.0600004196167,-1.940000057220459,2.3299999237060547,9.43000030517578,-1.8899999856948853,1.870000004768372,45227821
1749119627829961541,56.6875,-7.375,41.0625,9.970000267028809,-1.659999966621399,2.720000028610229,9.40999984741211,-1.9800000190734863,1.8799999952316284,45227829
1749119627841063139,51.5,-4.125,40.5625,9.90999984741211,-1.5700000524520874,2.819999933242798,9.399999618530272,-2.0299999713897705,1.8899999856948853,45227841
1749119627859749274,38.4375,1.375,36.3125,9.31999969482422,-1.340000033378601,2.650000095367432,9.359999656677246,-2.1700000762939453,1.9299999475479128,45227859
1749119627877031656,35.5625,2.3125,34.5,9.06999969482422,-1.309999942779541,2.440000057220459,9.350000381469728,-2.2100000381469727,1.950000047683716,45227877
1749119627900145737,31.875,3.8125,29.3125,9.0600004196167,-1.3799999952316284,2.0799999237060547,9.3100004196167,-2.319999933242798,2.0,45227900
1749119627921879634,35.125,6.4375,25.4375,9.15999984741211,-1.5,1.899999976158142,9.279999732971191,-2.380000114440918,2.049999952316284,45227921
1749119627944716328,37.6875,8.75,23.125,9.09000015258789,-1.4600000381469729,1.940000057220459,9.270000457763672,-2.4100000858306885,2.0799999237060547,45227944
1749119627959813814,37.75,12.625,17.0625,8.569999694824219,-1.5800000429153442,2.2300000190734863,9.229999542236328,-2.450000047683716,2.180000066757202,45227959
1749119627980095446,33.8125,12.25,14.875,8.430000305175781,-1.7599999904632568,2.3299999237060547,9.220000267028809,-2.470000028610229,2.2100000381469727,45227980
1749119628004106614,19.8125,11.4375,9.0,8.40999984741211,-1.9700000286102293,2.4100000858306885,9.199999809265137,-2.490000009536743,2.299999952316284,45228004
1749119628029726682,14.9375,7.8125,7.0625,8.449999809265137,-2.180000066757202,2.2799999713897705,9.18000030517578,-2.5,2.3399999141693115,45228029
1749119628040113672,14.375,5.0625,6.4375,8.40999984741211,-2.3299999237060547,2.1600000858306885,9.18000030517578,-2.5,2.359999895095825,45228040
1749119628064841380,13.9375,-3.1875,3.3125,8.5,-2.5,2.0899999141693115,9.170000076293944,-2.509999990463257,2.369999885559082,45228064
1749119628082082921,14.0625,-5.1875,1.625,8.520000457763672,-2.5299999713897705,2.190000057220459,9.170000076293944,-2.5,2.369999885559082,45228082
1749119628100945426,14.375,-9.5625,-5.0,8.770000457763672,-2.539999961853028,2.5799999237060547,9.1899995803833,-2.4800000190734863,2.3499999046325684,45228100
1749119628121200515,14.9375,-9.875,-9.25,8.899999618530273,-2.2799999713897705,2.9600000381469727,9.199999809265137,-2.440000057220459,2.3299999237060547,45228121
1749119628164260225,14.75,-9.9375,-11.5,8.920000076293945,-2.2100000381469727,3.049999952316284,9.210000038146973,-2.4100000858306885,2.319999933242798,45228164
1749119628174805493,10.75,-10.875,-18.8125,9.010000228881836,-2.039999961853028,3.2300000190734863,9.239999771118164,-2.319999933242798,2.289999961853028,45228174
1749119628180055565,8.25,-11.25,-21.125,9.029999732971191,-1.9800000190734863,3.25,9.25,-2.289999961853028,2.2699999809265137,45228180
1749119628199978028,-0.3125,-14.9375,-26.25,8.880000114440918,-1.7200000286102295,3.0999999046325684,9.300000190734863,-2.1700000762939453,2.2100000381469727,45228199
1749119628224285966,-11.0,-20.75,-32.25,9.1899995803833,-1.1699999570846558,2.289999961853028,9.329999923706056,-2.0799999237060547,2.150000095367432,45228224
1749119628240068541,-17.3125,-23.8125,-36.5625,9.119999885559082,-1.2300000190734863,2.25,9.350000381469728,-2.0299999713897705,2.0999999046325684,45228240
1749119628262943660,-31.8125,-35.9375,-36.9375,9.609999656677246,-1.850000023841858,1.649999976158142,9.420000076293944,-1.870000004768372,1.9299999475479128,45228262
1749119628279197275,-39.1875,-39.5,-36.0625,10.279999732971191,-2.1700000762939453,1.3700000047683716,9.449999809265137,-1.8200000524520876,1.850000023841858,45228279
1749119628305289138,-3.0625,-31.375,-29.875,10.260000228881836,-3.119999885559082,2.990000009536743,9.510000228881836,-1.6799999475479126,1.6799999475479126,45228305
1749119628330260585,-4.5,-38.8125,-23.375,10.779999732971191,-3.109999895095825,2.4200000762939453,9.539999961853027,-1.600000023841858,1.5499999523162842,45228330
1749119628338107953,-13.125,-37.125,-22.125,10.789999961853027,-2.880000114440918,2.690000057220459,9.5600004196167,-1.5700000524520874,1.4900000095367432,45228338
1749119628375068635,-16.25,-31.6875,-17.4375,10.199999809265137,-0.949999988079071,2.2100000381469727,9.600000381469728,-1.4900000095367432,1.3200000524520874,45228375
1749119628393975127,-10.625,-32.5625,-15.9375,10.0,-0.6399999856948853,1.7200000286102295,9.609999656677246,-1.4700000286102295,1.2599999904632568,45228393
1749119628400024071,-15.8125,-28.4375,-17.5625,9.380000114440918,-0.2000000029802322,0.75,9.640000343322754,-1.3899999856948853,1.1100000143051147,45228400
1749119628420924798,-24.3125,-26.1875,-23.5,9.300000190734863,-0.3600000143051147,0.9700000286102296,9.65999984741211,-1.3300000429153442,1.0099999904632568,45228420
1749119628438911048,-24.8125,-25.375,-25.8125,9.270000457763672,-0.7200000286102295,0.8500000238418579,9.670000076293944,-1.2899999618530271,0.959999978542328,45228438
1749119628461931420,-23.6875,-27.9375,-25.25,9.40999984741211,-1.5199999809265137,0.0299999993294477,9.699999809265137,-1.1799999475479126,0.8100000023841858,45228461
1749119628477983256,-21.3125,-28.3125,-24.5625,9.449999809265137,-1.6200000047683716,0.0299999993294477,9.699999809265137,-1.1399999856948853,0.7599999904632568,45228477
1749119628499847745,-8.5,-29.5,-21.75,9.640000343322754,-1.2200000286102295,0.2599999904632568,9.729999542236328,-1.0299999713897705,0.6100000143051147,45228499
1749119628524932115,-2.9375,-26.75,-19.6875,9.579999923706056,-0.8299999833106995,0.5899999737739563,9.739999771118164,-0.9700000286102296,0.5199999809265137,45228524
1749119628541374169,-1.3125,-25.875,-18.875,9.619999885559082,-0.6800000071525574,0.6200000047683716,9.739999771118164,-0.9300000071525574,0.4799999892711639,45228541
1749119628566110474,0.3125,-21.0625,-16.625,9.5600004196167,-0.209999993443489,0.4799999892711639,9.760000228881836,-0.8500000238418579,0.3600000143051147,45228566
1749119628580121823,1.25,-19.9375,-15.75,9.649999618530272,-0.1800000071525573,0.3799999952316284,9.760000228881836,-0.8199999928474426,0.3300000131130218,45228580
1749119628604090181,-0.625,-17.25,-14.0625,9.979999542236328,-0.25,-0.3600000143051147,9.770000457763672,-0.75,0.2399999946355819,45228604
1749119628631098884,-4.5,-19.375,-12.3125,10.010000228881836,-0.0799999982118606,-0.6600000262260437,9.770000457763672,-0.7099999785423279,0.1800000071525573,45228631
1749119628644168233,-7.125,-21.5,-12.0625,10.109999656677246,-0.0299999993294477,-0.7599999904632568,9.779999732971191,-0.6899999976158142,0.1400000005960464,45228644
1749119628671059676,-15.375,-23.0,-12.9375,10.149999618530272,-0.2000000029802322,-0.6000000238418579,9.779999732971191,-0.6200000047683716,0.0299999993294477,45228671
1749119628694849548,-18.4375,-23.0,-12.9375,10.119999885559082,-0.2199999988079071,-0.6000000238418579,9.779999732971191,-0.6000000238418579,0.0,45228694
1749119628707021188,-23.8125,-20.5,-12.25,10.0,-0.3799999952316284,-0.4000000059604645,9.789999961853027,-0.550000011920929,-0.0900000035762786,45228707
1749119628719997069,-36.5,-15.25,-11.0625,9.850000381469728,-0.5899999737739563,-0.0599999986588954,9.789999961853027,-0.4900000095367431,-0.1800000071525573,45228719
1749119628745975626,-37.875,-14.1875,-10.25,9.880000114440918,-0.3799999952316284,-0.0799999982118606,9.789999961853027,-0.4699999988079071,-0.209999993443489,45228745
1749119628771134219,-36.1875,-6.875,-10.375,9.550000190734863,-0.6899999976158142,-0.2300000041723251,9.789999961853027,-0.4199999868869781,-0.270000010728836,45228771
1749119628796839002,-33.4375,-5.25,-10.4375,9.43000030517578,-0.699999988079071,-0.3199999928474426,9.789999961853027,-0.4000000059604645,-0.2800000011920929,45228796
1749119628822078902,-24.125,-3.8125,-11.9375,9.59000015258789,-0.4000000059604645,-0.5400000214576721,9.789999961853027,-0.3400000035762787,-0.3100000023841858,45228822
1749119628846729387,-18.625,-5.375,-13.1875,9.8100004196167,0.0299999993294477,-0.4099999964237213,9.789999961853027,-0.2899999916553497,-0.3199999928474426,45228846
1749119628859913303,-15.5625,-6.375,-13.5,9.859999656677246,0.2899999916553497,-0.25,9.789999961853027,-0.270000010728836,-0.3300000131130218,45228859
1749119628867932114,-16.1875,-7.0625,-14.875,9.869999885559082,0.1899999976158142,0.0700000002980232,9.789999961853027,-0.2000000029802322,-0.3700000047683716,45228867
1749119628881098830,-18.125,-6.5,-15.5625,9.880000114440918,0.0700000002980232,0.1500000059604644,9.789999961853027,-0.1700000017881393,-0.3799999952316284,45228881
1749119628900023312,-18.25,-5.625,-15.1875,9.770000457763672,-0.0399999991059303,-0.0700000002980232,9.789999961853027,-0.0900000035762786,-0.4099999964237213,45228900
1749119628921119177,-18.25,-6.0625,-14.5,9.84000015258789,-0.3899999856948852,-0.4099999964237213,9.789999961853027,-0.0399999991059303,-0.4300000071525574,45228921
1749119628945202775,-17.5,-6.25,-14.1875,9.8100004196167,-0.3600000143051147,-0.3100000023841858,9.789999961853027,-0.0099999997764825,-0.4399999976158142,45228945
1749119628970181861,-17.125,-7.9375,-14.375,9.739999771118164,-0.4000000059604645,-0.1700000017881393,9.789999961853027,0.050000000745058,-0.4799999892711639,45228970
1749119628979863842,-15.1875,-8.375,-14.25,9.829999923706056,-0.3199999928474426,-0.270000010728836,9.789999961853027,0.0700000002980232,-0.4900000095367431,45228979
1749119629000364636,-15.8125,-8.1875,-14.75,9.869999885559082,-0.270000010728836,-0.4000000059604645,9.789999961853027,0.1299999952316284,-0.5199999809265137,45229000
1749119629021222625,-14.875,-8.4375,-15.375,9.779999732971191,-0.0900000035762786,-0.1700000017881393,9.779999732971191,0.1700000017881393,-0.5400000214576721,45229021
1749119629037036547,-15.75,-7.75,-16.125,9.789999961853027,-0.0399999991059303,-0.209999993443489,9.779999732971191,0.1899999976158142,-0.550000011920929,45229037
1749119629061034478,-21.5,-6.8125,-18.5,9.670000076293944,0.3000000119209289,-0.3600000143051147,9.779999732971191,0.2899999916553497,-0.5799999833106995,45229061
1749119629086992693,-22.75,-7.0625,-18.4375,9.68000030517578,0.3600000143051147,-0.3300000131130218,9.779999732971191,0.3199999928474426,-0.5899999737739563,45229086
1749119629104998559,-29.25,-6.125,-19.75,9.6899995803833,0.4699999988079071,-0.0900000035762786,9.770000457763672,0.4199999868869781,-0.6200000047683716,45229104
1749119629131072401,-36.1875,-5.5625,-21.1875,9.800000190734863,0.2599999904632568,-0.1599999964237213,9.770000457763672,0.5,-0.6299999952316284,45229131
1749119629150988282,-39.125,-5.0625,-21.4375,9.859999656677246,0.1700000017881393,-0.2300000041723251,9.770000457763672,0.5400000214576721,-0.6299999952316284,45229150
1749119629165178143,-41.5625,-2.125,-21.6875,9.829999923706056,-0.550000011920929,-0.7599999904632568,9.760000228881836,0.6600000262260437,-0.6399999856948853,45229165
1749119629180035944,-40.25,-1.9375,-21.5,9.859999656677246,-0.6600000262260437,-0.8299999833106995,9.760000228881836,0.699999988079071,-0.6299999952316284,45229180
1749119629201920565,-35.1875,-3.375,-21.0625,9.970000267028809,-0.9100000262260436,-0.7799999713897705,9.75,0.8199999928474426,-0.6299999952316284,45229201
1749119629219782593,-35.125,-3.25,-20.0,9.949999809265137,-1.0399999618530271,-0.5699999928474426,9.739999771118164,0.8899999856948853,-0.6399999856948853,45229219
1749119629244042598,-35.3125,-2.4375,-19.8125,10.119999885559082,-1.399999976158142,-0.6700000166893005,9.739999771118164,0.9300000071525574,-0.6299999952316284,45229244
1749119629260130334,-24.3125,2.5625,-16.1875,10.31999969482422,-1.350000023841858,-0.6299999952316284,9.729999542236328,1.0199999809265137,-0.6200000047683716,45229260
1749119629280727167,-19.6875,2.4375,-15.1875,10.270000457763672,-0.9800000190734864,-0.5899999737739563,9.729999542236328,1.0499999523162842,-0.6100000143051147,45229280
1749119629304112996,-14.8125,4.75,-13.9375,10.31999969482422,0.270000010728836,0.2800000011920929,9.720000267028809,1.1200000047683716,-0.5799999833106995,45229304
1749119629329971959,-16.9375,9.9375,-13.4375,10.359999656677246,-0.0700000002980232,0.0399999991059303,9.710000038146973,1.1699999570846558,-0.550000011920929,45229329
1749119629336955717,-16.0,12.25,-12.1875,10.43000030517578,-0.6299999952316284,-0.1899999976158142,9.710000038146973,1.190000057220459,-0.5299999713897705,45229336
1749119629360057824,-5.1875,17.3125,-3.125,10.729999542236328,-1.0399999618530271,-0.2000000029802322,9.710000038146973,1.2300000190734863,-0.4399999976158142,45229360
1749119629378830856,-0.9375,18.6875,1.0625,10.920000076293944,-1.0499999523162842,-0.0900000035762786,9.710000038146973,1.2300000190734863,-0.4099999964237213,45229378
1749119629401101997,6.125,28.1875,14.9375,11.020000457763672,-0.4199999868869781,0.8199999928474426,9.729999542236328,1.1799999475479126,-0.2899999916553497,45229401
1749119629425082177,3.6875,37.375,23.8125,10.779999732971191,-0.3000000119209289,1.559999942779541,9.739999771118164,1.100000023841858,-0.1800000071525573,45229425
1749119629441232069,-0.9375,42.8125,29.0625,10.40999984741211,-0.270000010728836,2.130000114440918,9.739999771118164,1.059999942779541,-0.1099999994039535,45229441
1749119629462960343,-12.4375,63.9375,46.375,9.5600004196167,-0.3400000035762787,2.9600000381469727,9.760000228881836,0.8600000143051147,0.1599999964237213,45229462
1749119629490253599,-14.1875,74.0625,52.3125,9.350000381469728,-0.3400000035762787,3.0799999237060547,9.770000457763672,0.7699999809265137,0.2899999916553497,45229490
1749119629499381123,-26.5625,100.125,64.4375,9.420000076293944,-0.1800000071525573,2.2699999809265137,9.760000228881836,0.4600000083446502,0.75,45229499
1749119629519855020,-37.375,103.8125,69.25,9.18000030517578,-0.209999993443489,1.399999976158142,9.739999771118164,0.2300000041723251,1.100000023841858,45229519
