timestamp_ns,wx,wy,wz,ax,ay,az,gx,gy,gz,time_ms_loc
1749119614598905900,-4.625,1.6875,-0.4375,9.170000076293944,-0.7599999904632568,-3.25,9.229999542236328,-0.6600000262260437,-3.220000028610229,45214598
1749119614625057166,-3.25,1.1875,-0.75,9.210000038146973,-0.699999988079071,-3.259999990463257,9.239999771118164,-0.6499999761581421,-3.2100000381469727,45214625
1749119614630054597,-2.75,0.8125,-0.5,9.25,-0.7300000190734863,-3.289999961853028,9.239999771118164,-0.6499999761581421,-3.2100000381469727,45214630
1749119614646945007,-2.1875,0.875,-0.1875,9.229999542236328,-0.6399999856948853,-3.289999961853028,9.239999771118164,-0.6499999761581421,-3.2100000381469727,45214646
1749119614683182949,-2.5,1.3125,0.25,9.210000038146973,-0.6899999976158142,-3.2799999713897705,9.239999771118164,-0.6399999856948853,-3.2100000381469727,45214683
1749119614708973314,-2.3125,1.5,0.625,9.239999771118164,-0.699999988079071,-3.25,9.239999771118164,-0.6399999856948853,-3.200000047683716,45214708
1749119614734816816,-1.75,1.4375,0.9375,9.199999809265137,-0.7799999713897705,-3.259999990463257,9.239999771118164,-0.6399999856948853,-3.200000047683716,45214734
1749119614740094420,-1.0625,1.375,0.8125,9.170000076293944,-0.6899999976158142,-3.259999990463257,9.239999771118164,-0.6399999856948853,-3.200000047683716,45214740
1749119614755112520,-1.0,1.375,0.8125,9.220000267028809,-0.7400000095367432,-3.259999990463257,9.239999771118164,-0.6499999761581421,-3.190000057220459,45214755
1749119614767116027,-0.4375,1.1875,0.9375,9.229999542236328,-0.699999988079071,-3.2300000190734863,9.239999771118164,-0.6499999761581421,-3.190000057220459,45214767
1749119614792139319,-0.375,1.125,0.6875,9.270000457763672,-0.6899999976158142,-3.2300000190734863,9.239999771118164,-0.6499999761581421,-3.190000057220459,45214792
1749119614810241482,0.1875,1.0625,0.8125,9.25,-0.75,-3.25,9.25,-0.6499999761581421,-3.180000066757202,45214810
1749119614835328511,0.0,1.125,0.5625,9.229999542236328,-0.7400000095367432,-3.2699999809265137,9.25,-0.6600000262260437,-3.180000066757202,45214835
1749119614852173678,0.1875,1.125,0.5,9.199999809265137,-0.7799999713897705,-3.240000009536743,9.25,-0.6600000262260437,-3.180000066757202,45214852
1749119614870116909,0.625,1.0,-0.125,9.199999809265137,-0.7799999713897705,-3.240000009536743,9.25,-0.6600000262260437,-3.1700000762939453,45214870
1749119614887081208,0.875,0.9375,-0.4375,9.210000038146973,-0.7900000214576721,-3.200000047683716,9.25,-0.6600000262260437,-3.1700000762939453,45214887
1749119614907113818,1.375,0.625,-0.75,9.199999809265137,-0.7400000095367432,-3.2300000190734863,9.25,-0.6600000262260437,-3.1700000762939453,45214907
1749119614929187088,2.5,0.125,-0.9375,9.18000030517578,-0.75,-3.2300000190734863,9.25,-0.6600000262260437,-3.1700000762939453,45214929
1749119614953287213,3.1875,-0.5,-0.9375,9.220000267028809,-0.7300000190734863,-3.240000009536743,9.25,-0.6600000262260437,-3.1700000762939453,45214953
1749119614970970545,4.0,-0.625,-0.875,9.239999771118164,-0.7300000190734863,-3.2300000190734863,9.25,-0.6600000262260437,-3.1700000762939453,45214970
1749119614996874301,3.6875,-0.625,-0.625,9.260000228881836,-0.699999988079071,-3.190000057220459,9.25,-0.6700000166893005,-3.1700000762939453,45214996
1749119615021982157,3.25,-0.4375,-0.375,9.229999542236328,-0.699999988079071,-3.190000057220459,9.25,-0.6700000166893005,-3.1700000762939453,45215021
1749119615026797895,2.0,-0.1875,0.0625,9.220000267028809,-0.699999988079071,-3.2300000190734863,9.25,-0.6700000166893005,-3.1700000762939453,45215026
1749119615050997066,1.1875,0.1875,0.4375,9.199999809265137,-0.7200000286102295,-3.220000028610229,9.25,-0.6700000166893005,-3.1700000762939453,45215050
1749119615066770409,0.8125,0.0625,0.9375,9.199999809265137,-0.7400000095367432,-3.259999990463257,9.25,-0.6800000071525574,-3.1700000762939453,45215066
1749119615088067907,1.3125,-0.3125,1.0625,9.229999542236328,-0.7699999809265137,-3.220000028610229,9.25,-0.6800000071525574,-3.1700000762939453,45215088
1749119615109980270,0.9375,-0.1875,1.125,9.220000267028809,-0.7699999809265137,-3.220000028610229,9.25,-0.6899999976158142,-3.1700000762939453,45215109
1749119615126125441,0.625,-0.125,0.9375,9.260000228881836,-0.75,-3.220000028610229,9.25,-0.6899999976158142,-3.1700000762939453,45215126
1749119615147625570,0.6875,-0.1875,0.75,9.199999809265137,-0.7699999809265137,-3.2699999809265137,9.25,-0.6899999976158142,-3.1700000762939453,45215147
1749119615170958152,0.9375,-0.25,0.75,9.229999542236328,-0.7699999809265137,-3.2300000190734863,9.25,-0.699999988079071,-3.1700000762939453,45215170
1749119615195138336,0.6875,-0.0625,0.75,9.210000038146973,-0.7799999713897705,-3.240000009536743,9.25,-0.699999988079071,-3.1700000762939453,45215195
1749119615212263435,0.0,0.0,0.5,9.220000267028809,-0.7799999713897705,-3.2300000190734863,9.25,-0.699999988079071,-3.1700000762939453,45215212
1749119615231959564,-0.375,0.125,0.4375,9.199999809265137,-0.7799999713897705,-3.2300000190734863,9.239999771118164,-0.699999988079071,-3.1700000762939453,45215231
1749119615259887712,-0.75,0.125,0.125,9.210000038146973,-0.7799999713897705,-3.2300000190734863,9.239999771118164,-0.699999988079071,-3.1700000762939453,45215259
1749119615266968991,-0.9375,0.1875,0.125,9.220000267028809,-0.7900000214576721,-3.2300000190734863,9.239999771118164,-0.699999988079071,-3.180000066757202,45215266
1749119615286852920,-0.9375,0.125,0.125,9.210000038146973,-0.7799999713897705,-3.240000009536743,9.239999771118164,-0.699999988079071,-3.180000066757202,45215286
1749119615306854012,-0.5625,0.125,0.0,9.229999542236328,-0.7799999713897705,-3.259999990463257,9.239999771118164,-0.699999988079071,-3.180000066757202,45215306
1749119615328182950,-0.1875,0.25,-0.125,9.220000267028809,-0.7900000214576721,-3.2799999713897705,9.239999771118164,-0.699999988079071,-3.180000066757202,45215328
1749119615346998029,0.25,0.0625,-0.125,9.1899995803833,-0.7799999713897705,-3.240000009536743,9.239999771118164,-0.699999988079071,-3.180000066757202,45215346
1749119615370147835,0.375,0.125,-0.25,9.220000267028809,-0.7699999809265137,-3.2100000381469727,9.239999771118164,-0.699999988079071,-3.180000066757202,45215370
1749119615389913449,0.1875,0.25,-0.3125,9.210000038146973,-0.7799999713897705,-3.2100000381469727,9.239999771118164,-0.7099999785423279,-3.180000066757202,45215389
1749119615411840950,0.0,0.3125,-0.375,9.199999809265137,-0.7900000214576721,-3.25,9.239999771118164,-0.7099999785423279,-3.180000066757202,45215411
1749119615432650658,0.125,0.1875,-0.4375,9.25,-0.7900000214576721,-3.240000009536743,9.239999771118164,-0.7099999785423279,-3.180000066757202,45215432
1749119615447206077,-0.0625,0.125,-0.5625,9.210000038146973,-0.7799999713897705,-3.2300000190734863,9.239999771118164,-0.7099999785423279,-3.180000066757202,45215447
1749119615473994347,-0.25,0.3125,-0.5625,9.25,-0.7900000214576721,-3.2300000190734863,9.239999771118164,-0.7099999785423279,-3.180000066757202,45215473
1749119615487027944,-0.5,0.25,-0.8125,9.220000267028809,-0.7799999713897705,-3.2300000190734863,9.239999771118164,-0.699999988079071,-3.180000066757202,45215487
1749119615508547504,-0.9375,0.25,-0.9375,9.220000267028809,-0.7900000214576721,-3.240000009536743,9.239999771118164,-0.699999988079071,-3.180000066757202,45215508
1749119615529005289,-1.125,0.375,-1.1875,9.199999809265137,-0.7799999713897705,-3.240000009536743,9.239999771118164,-0.699999988079071,-3.180000066757202,45215529
1749119615556065800,-1.4375,0.5,-1.1875,9.220000267028809,-0.7699999809265137,-3.220000028610229,9.239999771118164,-0.6899999976158142,-3.180000066757202,45215556
1749119615574163094,-1.4375,0.4375,-1.3125,9.239999771118164,-0.7300000190734863,-3.2300000190734863,9.239999771118164,-0.6899999976158142,-3.180000066757202,45215574
1749119615591083956,-1.875,0.75,-1.1875,9.210000038146973,-0.7400000095367432,-3.2100000381469727,9.239999771118164,-0.6800000071525574,-3.180000066757202,45215591
1749119615618319822,-2.125,0.75,-0.9375,9.239999771118164,-0.7200000286102295,-3.2300000190734863,9.25,-0.6800000071525574,-3.180000066757202,45215618
1749119615629186538,-2.0625,0.875,-0.625,9.239999771118164,-0.6899999976158142,-3.220000028610229,9.25,-0.6700000166893005,-3.180000066757202,45215629
1749119615646966578,-2.0625,0.8125,-0.3125,9.229999542236328,-0.7099999785423279,-3.2100000381469727,9.25,-0.6700000166893005,-3.180000066757202,45215646
1749119615671818864,-2.125,0.9375,0.0625,9.210000038146973,-0.7300000190734863,-3.2300000190734863,9.25,-0.6700000166893005,-3.1700000762939453,45215671
1749119615697142827,-2.0,0.6875,0.1875,9.229999542236328,-0.7300000190734863,-3.2100000381469727,9.25,-0.6600000262260437,-3.1700000762939453,45215697
1749119615710145591,-1.75,0.6875,0.3125,9.229999542236328,-0.7300000190734863,-3.2300000190734863,9.25,-0.6600000262260437,-3.1700000762939453,45215710
1749119615732045523,-1.25,0.5625,0.375,9.260000228881836,-0.75,-3.190000057220459,9.25,-0.6600000262260437,-3.1700000762939453,45215732
1749119615756957700,-0.5625,0.3125,0.125,9.239999771118164,-0.75,-3.2100000381469727,9.25,-0.6600000262260437,-3.1700000762939453,45215756
1749119615781910605,0.3125,-0.0625,0.3125,9.239999771118164,-0.7699999809265137,-3.2100000381469727,9.25,-0.6600000262260437,-3.1700000762939453,45215781
1749119615805923625,0.5625,-0.125,0.0625,9.210000038146973,-0.7400000095367432,-3.2100000381469727,9.25,-0.6600000262260437,-3.1700000762939453,45215805
1749119615834075868,0.5625,-0.125,0.0,9.220000267028809,-0.7799999713897705,-3.220000028610229,9.25,-0.6600000262260437,-3.1700000762939453,45215834
1749119615859031099,0.375,0.0,-0.0625,9.229999542236328,-0.75,-3.180000066757202,9.25,-0.6600000262260437,-3.1700000762939453,45215859
1749119615884853233,0.625,-0.1875,-0.125,9.239999771118164,-0.7400000095367432,-3.190000057220459,9.25,-0.6600000262260437,-3.1700000762939453,45215884
1749119615900818349,0.875,-0.25,-0.3125,9.220000267028809,-0.7400000095367432,-3.220000028610229,9.25,-0.6600000262260437,-3.1700000762939453,45215900
1749119615921277309,0.875,-0.3125,-0.1875,9.210000038146973,-0.7599999904632568,-3.220000028610229,9.25,-0.6600000262260437,-3.1700000762939453,45215921
1749119615928068937,1.75,-0.4375,-0.1875,9.1899995803833,-0.7599999904632568,-3.2300000190734863,9.25,-0.6600000262260437,-3.1700000762939453,45215928
1749119615941946021,2.0625,-0.5625,0.0,9.229999542236328,-0.7400000095367432,-3.220000028610229,9.25,-0.6700000166893005,-3.1700000762939453,45215941
1749119615947099233,1.75,-0.5,-0.125,9.260000228881836,-0.7599999904632568,-3.200000047683716,9.25,-0.6700000166893005,-3.1700000762939453,45215947
1749119615971790134,1.5,-0.375,-0.125,9.25,-0.7099999785423279,-3.220000028610229,9.25,-0.6700000166893005,-3.1700000762939453,45215971
1749119615990682868,1.25,-0.1875,0.0625,9.239999771118164,-0.7099999785423279,-3.2300000190734863,9.25,-0.6700000166893005,-3.1700000762939453,45215990
1749119616016104435,1.3125,-0.1875,0.3125,9.229999542236328,-0.7400000095367432,-3.240000009536743,9.25,-0.6700000166893005,-3.1700000762939453,45216016
1749119616030930651,1.3125,-0.0625,0.375,9.220000267028809,-0.7300000190734863,-3.2300000190734863,9.25,-0.6800000071525574,-3.1700000762939453,45216030
1749119616058110299,1.1875,-0.0625,0.375,9.239999771118164,-0.7599999904632568,-3.2300000190734863,9.25,-0.6800000071525574,-3.1700000762939453,45216058
1749119616068276428,0.8125,0.0,0.625,9.239999771118164,-0.75,-3.2300000190734863,9.25,-0.6800000071525574,-3.1700000762939453,45216068
1749119616091941552,0.875,0.0,0.5625,9.229999542236328,-0.75,-3.2300000190734863,9.25,-0.6800000071525574,-3.1700000762939453,45216091
1749119616108078255,0.75,-0.0625,0.5,9.25,-0.7799999713897705,-3.2300000190734863,9.25,-0.6800000071525574,-3.1700000762939453,45216108
1749119616135946714,0.875,0.0625,0.4375,9.239999771118164,-0.7599999904632568,-3.2300000190734863,9.25,-0.6800000071525574,-3.1700000762939453,45216135
1749119616147018054,0.625,0.0625,0.25,9.220000267028809,-0.7799999713897705,-3.2300000190734863,9.25,-0.6800000071525574,-3.1700000762939453,45216147
1749119616172823951,0.4375,0.3125,0.25,9.220000267028809,-0.7799999713897705,-3.220000028610229,9.25,-0.6800000071525574,-3.1700000762939453,45216172
1749119616195153107,0.3125,0.125,0.125,9.210000038146973,-0.800000011920929,-3.180000066757202,9.25,-0.6800000071525574,-3.1700000762939453,45216195
1749119616212986029,0.75,0.0,0.125,9.1899995803833,-0.7799999713897705,-3.25,9.25,-0.6800000071525574,-3.1700000762939453,45216212
1749119616239084706,1.0,0.0,0.1875,9.220000267028809,-0.7699999809265137,-3.190000057220459,9.25,-0.6800000071525574,-3.1700000762939453,45216239
1749119616256026304,1.125,-0.0625,0.1875,9.239999771118164,-0.7900000214576721,-3.259999990463257,9.25,-0.6899999976158142,-3.1700000762939453,45216256
1749119616266993552,1.625,-0.3125,0.1875,9.270000457763672,-0.7799999713897705,-3.200000047683716,9.25,-0.6899999976158142,-3.1700000762939453,45216266
1749119616293016749,1.875,-0.0625,0.1875,9.260000228881836,-0.7900000214576721,-3.2300000190734863,9.25,-0.6899999976158142,-3.1600000858306885,45216293
1749119616306815347,1.6875,0.125,-0.0625,9.25,-0.800000011920929,-3.25,9.25,-0.6899999976158142,-3.1600000858306885,45216306
1749119616333092400,1.1875,0.4375,-0.125,9.220000267028809,-0.7900000214576721,-3.25,9.25,-0.6899999976158142,-3.1600000858306885,45216333
1749119616347214714,0.8125,0.6875,0.0625,9.15999984741211,-0.7799999713897705,-3.25,9.25,-0.6899999976158142,-3.1600000858306885,45216347
1749119616373192241,0.8125,0.875,0.0,9.199999809265137,-0.7900000214576721,-3.190000057220459,9.25,-0.6899999976158142,-3.1600000858306885,45216373
1749119616390896319,0.625,0.75,0.1875,9.239999771118164,-0.7699999809265137,-3.190000057220459,9.25,-0.6899999976158142,-3.1600000858306885,45216390
1749119616407093546,0.4375,0.75,0.3125,9.25,-0.7799999713897705,-3.2300000190734863,9.25,-0.6899999976158142,-3.1600000858306885,45216407
1749119616432088637,0.0625,0.625,0.8125,9.239999771118164,-0.7599999904632568,-3.200000047683716,9.25,-0.699999988079071,-3.150000095367432,45216432
1749119616453650602,0.0,0.5625,1.1875,9.210000038146973,-0.7799999713897705,-3.2300000190734863,9.25,-0.699999988079071,-3.150000095367432,45216453
1749119616476915611,0.3125,0.3125,1.5,9.210000038146973,-0.8100000023841858,-3.220000028610229,9.25,-0.699999988079071,-3.150000095367432,45216476
1749119616490209912,0.6875,0.1875,1.5,9.229999542236328,-0.8299999833106995,-3.180000066757202,9.25,-0.7099999785423279,-3.150000095367432,45216490
1749119616507020346,0.625,0.25,1.125,9.220000267028809,-0.8600000143051147,-3.240000009536743,9.25,-0.7099999785423279,-3.150000095367432,45216507
1749119616533176687,0.3125,0.1875,0.9375,9.220000267028809,-0.8600000143051147,-3.2100000381469727,9.25,-0.7200000286102295,-3.150000095367432,45216533
1749119616557114356,0.5,0.3125,0.6875,9.229999542236328,-0.8399999737739563,-3.25,9.25,-0.7200000286102295,-3.150000095367432,45216557
1749119616582030505,0.6875,0.5,0.1875,9.260000228881836,-0.8600000143051147,-3.220000028610229,9.25,-0.7200000286102295,-3.150000095367432,45216582
1749119616606872405,0.8125,0.625,0.0625,9.199999809265137,-0.8700000047683716,-3.2100000381469727,9.25,-0.7200000286102295,-3.150000095367432,45216606
1749119616631855011,0.6875,0.75,-0.25,9.220000267028809,-0.8600000143051147,-3.2100000381469727,9.25,-0.7200000286102295,-3.150000095367432,45216631
1749119616658053990,0.625,0.875,-0.3125,9.1899995803833,-0.8199999928474426,-3.180000066757202,9.25,-0.7200000286102295,-3.150000095367432,45216658
1749119616678082171,0.5625,0.8125,-0.375,9.1899995803833,-0.8299999833106995,-3.2100000381469727,9.25,-0.7200000286102295,-3.140000104904175,45216678
1749119616692090509,0.6875,0.6875,-0.1875,9.239999771118164,-0.8100000023841858,-3.200000047683716,9.25,-0.7200000286102295,-3.140000104904175,45216692
1749119616694921869,0.5625,0.75,-0.125,9.239999771118164,-0.800000011920929,-3.190000057220459,9.260000228881836,-0.7200000286102295,-3.140000104904175,45216694
1749119616709210524,0.0625,0.75,0.1875,9.25,-0.8100000023841858,-3.200000047683716,9.260000228881836,-0.7200000286102295,-3.140000104904175,45216709
1749119616731900711,-0.125,0.75,0.5,9.239999771118164,-0.800000011920929,-3.1700000762939453,9.260000228881836,-0.7200000286102295,-3.130000114440918,45216731
1749119616759102069,-0.4375,0.75,0.875,9.239999771118164,-0.7900000214576721,-3.150000095367432,9.260000228881836,-0.7200000286102295,-3.130000114440918,45216759
1749119616767050851,-0.3125,0.625,1.1875,9.260000228881836,-0.7799999713897705,-3.150000095367432,9.260000228881836,-0.7300000190734863,-3.130000114440918,45216767
1749119616786981931,-0.5,0.5625,1.25,9.220000267028809,-0.8299999833106995,-3.180000066757202,9.260000228881836,-0.7300000190734863,-3.130000114440918,45216786
1749119616806897803,-0.9375,0.6875,1.5,9.210000038146973,-0.8100000023841858,-3.2100000381469727,9.260000228881836,-0.7400000095367432,-3.130000114440918,45216806
1749119616835200677,-1.5625,0.75,1.625,9.260000228881836,-0.8500000238418579,-3.220000028610229,9.260000228881836,-0.7400000095367432,-3.130000114440918,45216835
1749119616856345128,-1.875,0.8125,1.4375,9.229999542236328,-0.8700000047683716,-3.180000066757202,9.260000228881836,-0.7400000095367432,-3.130000114440918,45216856
1749119616873840299,-1.75,1.0,1.375,9.199999809265137,-0.8899999856948853,-3.190000057220459,9.260000228881836,-0.7400000095367432,-3.119999885559082,45216873
1749119616897077642,-1.5,1.0625,1.25,9.220000267028809,-0.8500000238418579,-3.1600000858306885,9.260000228881836,-0.75,-3.119999885559082,45216897
1749119616911210962,-1.125,1.3125,0.6875,9.279999732971191,-0.959999978542328,-3.2100000381469727,9.260000228881836,-0.75,-3.119999885559082,45216911
1749119616929319184,-0.5,1.1875,0.3125,9.239999771118164,-0.9100000262260436,-3.1600000858306885,9.260000228881836,-0.75,-3.109999895095825,45216929
1749119616947133699,-0.4375,1.375,-0.5,9.220000267028809,-0.9300000071525574,-3.150000095367432,9.260000228881836,-0.75,-3.109999895095825,45216947
1749119616971811257,-0.3125,1.4375,-1.375,9.289999961853027,-0.9300000071525574,-3.1700000762939453,9.260000228881836,-0.75,-3.109999895095825,45216971
1749119616990717401,-0.5,1.6875,-2.125,9.25,-0.8899999856948853,-3.1700000762939453,9.270000457763672,-0.75,-3.0999999046325684,45216990
1749119617016836014,-0.9375,1.9375,-3.0,9.25,-0.8999999761581421,-3.200000047683716,9.270000457763672,-0.7400000095367432,-3.0999999046325684,45217016
1749119617030016100,-1.5,2.375,-3.6875,9.239999771118164,-0.8899999856948853,-3.1700000762939453,9.270000457763672,-0.7300000190734863,-3.0899999141693115,45217030
1749119617051890025,-1.0625,2.6875,-4.4375,9.260000228881836,-0.8899999856948853,-3.1600000858306885,9.270000457763672,-0.7099999785423279,-3.0799999237060547,45217051
1749119617072017922,-0.625,2.6875,-4.9375,9.239999771118164,-0.8600000143051147,-3.1700000762939453,9.279999732971191,-0.699999988079071,-3.0799999237060547,45217072
1749119617099104951,-0.25,3.0625,-5.375,9.25,-0.800000011920929,-3.1700000762939453,9.279999732971191,-0.6899999976158142,-3.069999933242798,45217099
1749119617114260844,-0.125,3.3125,-5.6875,9.270000457763672,-0.7799999713897705,-3.150000095367432,9.289999961853027,-0.6700000166893005,-3.059999942779541,45217114
1749119617125863185,-0.1875,3.5,-5.875,9.25,-0.7599999904632568,-3.0999999046325684,9.289999961853027,-0.6499999761581421,-3.049999952316284,45217125
1749119617155879070,-0.25,3.3125,-5.625,9.199999809265137,-0.6200000047683716,-3.059999942779541,9.300000190734863,-0.6399999856948853,-3.039999961853028,45217155
1749119617174839746,-0.6875,2.8125,-4.875,9.25,-0.6100000143051147,-3.049999952316284,9.300000190734863,-0.6200000047683716,-3.0299999713897705,45217174
1749119617195203531,-1.3125,2.25,-3.75,9.359999656677246,-0.550000011920929,-2.950000047683716,9.300000190734863,-0.6000000238418579,-3.0199999809265137,45217195
1749119617214017383,-1.875,1.375,-2.75,9.31999969482422,-0.6000000238418579,-2.970000028610229,9.3100004196167,-0.5899999737739563,-3.0199999809265137,45217214
1749119617287096408,-1.8125,0.875,-1.75,9.31999969482422,-0.6399999856948853,-2.990000009536743,9.3100004196167,-0.5799999833106995,-3.009999990463257,45217287
1749119617314286080,-2.0625,0.125,-1.1875,9.279999732971191,-0.6200000047683716,-3.009999990463257,9.3100004196167,-0.5799999833106995,-3.009999990463257,45217314
1749119617333989825,-2.8125,-0.375,-0.5625,9.260000228881836,-0.6600000262260437,-3.049999952316284,9.3100004196167,-0.5699999928474426,-3.009999990463257,45217333
1749119617347153724,-3.0625,-0.8125,-0.375,9.239999771118164,-0.6100000143051147,-3.049999952316284,9.3100004196167,-0.5699999928474426,-3.0199999809265137,45217347
1749119617355112293,-4.0,-0.875,0.1875,9.279999732971191,-0.5799999833106995,-3.049999952316284,9.3100004196167,-0.5699999928474426,-3.0199999809265137,45217355
1749119617369983923,-5.75,-1.0625,0.9375,9.300000190734863,-0.5699999928474426,-3.059999942779541,9.300000190734863,-0.5600000023841858,-3.0199999809265137,45217369
1749119617371737428,-6.75,-0.625,1.75,9.3100004196167,-0.550000011920929,-3.059999942779541,9.300000190734863,-0.5600000023841858,-3.0299999713897705,45217371
1749119617383031168,-8.125,-0.625,2.3125,9.279999732971191,-0.5699999928474426,-3.0899999141693115,9.300000190734863,-0.5600000023841858,-3.0299999713897705,45217383
1749119617400127270,-8.6875,-0.75,3.1875,9.260000228881836,-0.4699999988079071,-3.069999933242798,9.300000190734863,-0.5600000023841858,-3.039999961853028,45217400
1749119617406777665,-11.625,-0.1875,4.125,9.369999885559082,-0.3700000047683716,-3.0899999141693115,9.300000190734863,-0.5600000023841858,-3.039999961853028,45217406
1749119617428183275,-14.0625,0.625,5.1875,9.31999969482422,-0.6499999761581421,-3.1700000762939453,9.300000190734863,-0.5600000023841858,-3.039999961853028,45217428
1749119617451224837,-11.6875,1.125,5.0,9.199999809265137,-0.5199999809265137,-3.240000009536743,9.300000190734863,-0.5699999928474426,-3.039999961853028,45217451
1749119617476835024,-14.4375,2.75,5.625,9.220000267028809,-0.6299999952316284,-3.319999933242798,9.300000190734863,-0.5699999928474426,-3.039999961853028,45217476
1749119617491181078,-15.5,3.5,5.6875,9.210000038146973,-0.7599999904632568,-3.039999961853028,9.300000190734863,-0.5699999928474426,-3.0299999713897705,45217491
1749119617507739254,-11.1875,3.125,5.25,9.260000228881836,-0.9200000166893004,-3.039999961853028,9.300000190734863,-0.5799999833106995,-3.0299999713897705,45217507
1749119617532139114,-8.9375,2.9375,4.125,9.380000114440918,-0.7300000190734863,-3.0799999237060547,9.3100004196167,-0.5799999833106995,-3.0199999809265137,45217532
1749119617560935888,-8.875,3.625,3.1875,9.239999771118164,-0.8100000023841858,-3.140000104904175,9.3100004196167,-0.5899999737739563,-3.009999990463257,45217560
1749119617585272545,-9.25,4.5,2.875,9.289999961853027,-0.7200000286102295,-3.220000028610229,9.3100004196167,-0.5899999737739563,-3.0,45217585
1749119617600030884,-9.25,5.375,1.6875,9.279999732971191,-0.8799999952316284,-3.049999952316284,9.3100004196167,-0.5899999737739563,-2.990000009536743,45217600
1749119617608375481,-8.375,5.375,0.25,9.3100004196167,-0.8299999833106995,-3.0,9.31999969482422,-0.5799999833106995,-2.9800000190734863,45217608
1749119617634385778,-4.5625,4.75,-1.75,9.09000015258789,-0.9200000166893004,-2.880000114440918,9.31999969482422,-0.5799999833106995,-2.9600000381469727,45217634
1749119617660086471,-2.3125,3.625,-3.375,9.15999984741211,-0.75,-2.950000047683716,9.329999923706056,-0.5699999928474426,-2.950000047683716,45217660
1749119617667016567,-1.5625,3.4375,-3.875,9.449999809265137,-0.6200000047683716,-2.9600000381469727,9.329999923706056,-0.5600000023841858,-2.940000057220459,45217667
1749119617689995050,-1.375,3.0625,-3.875,9.34000015258789,-0.6100000143051147,-2.940000057220459,9.34000015258789,-0.550000011920929,-2.930000066757202,45217689
1749119617714125740,-0.625,2.8125,-3.5,9.279999732971191,-0.6000000238418579,-3.009999990463257,9.34000015258789,-0.5400000214576721,-2.9200000762939453,45217714
1749119617730569107,0.375,2.3125,-3.125,9.260000228881836,-0.550000011920929,-2.9600000381469727,9.34000015258789,-0.5299999713897705,-2.9100000858306885,45217730
1749119617752371458,0.375,2.0,-2.5625,9.279999732971191,-0.550000011920929,-2.890000104904175,9.34000015258789,-0.5199999809265137,-2.9100000858306885,45217752
1749119617778408948,0.375,1.625,-2.0625,9.289999961853027,-0.5799999833106995,-2.950000047683716,9.350000381469728,-0.5099999904632568,-2.900000095367432,45217778
1749119617789154941,1.0,1.25,-1.8125,9.289999961853027,-0.6000000238418579,-2.890000104904175,9.350000381469728,-0.5099999904632568,-2.900000095367432,45217789
1749119617814138461,1.6875,1.0,-1.9375,9.239999771118164,-0.6399999856948853,-2.9800000190734863,9.350000381469728,-0.5,-2.890000104904175,45217814
1749119617836156184,2.3125,1.0,-2.5625,9.359999656677246,-0.6600000262260437,-2.990000009536743,9.350000381469728,-0.5,-2.890000104904175,45217836
1749119617850165671,2.25,1.4375,-3.125,9.390000343322754,-0.6399999856948853,-3.0199999809265137,9.350000381469728,-0.4900000095367431,-2.890000104904175,45217850
1749119617866979465,0.875,2.375,-4.0,9.34000015258789,-0.6299999952316284,-3.059999942779541,9.350000381469728,-0.4799999892711639,-2.880000114440918,45217866
1749119617893884381,-0.5,3.5,-4.25,9.390000343322754,-0.6000000238418579,-3.0299999713897705,9.359999656677246,-0.4699999988079071,-2.880000114440918,45217893
1749119617907124778,-1.1875,4.0,-4.1875,9.600000381469728,-0.4300000071525574,-3.009999990463257,9.359999656677246,-0.4600000083446502,-2.859999895095825,45217907
1749119617932188431,-4.8125,5.5625,-3.5,9.399999618530272,-0.4399999976158142,-2.930000066757202,9.369999885559082,-0.4399999976158142,-2.8499999046325684,45217932
1749119617947063220,-5.125,5.9375,-3.25,9.25,-0.5600000023841858,-2.880000114440918,9.369999885559082,-0.4300000071525574,-2.8299999237060547,45217947
1749119617986317297,-4.25,5.6875,-3.5,9.18000030517578,-0.550000011920929,-2.740000009536743,9.380000114440918,-0.4099999964237213,-2.809999942779541,45217986
1749119618004333886,-2.5,4.125,-3.8125,9.239999771118164,-0.5099999904632568,-2.759999990463257,9.380000114440918,-0.4000000059604645,-2.799999952316284,45218004
1749119618006880654,-2.375,3.8125,-3.8125,9.289999961853027,-0.4300000071525574,-2.809999942779541,9.390000343322754,-0.3799999952316284,-2.789999961853028,45218006
1749119618031249926,-1.8125,3.5625,-3.8125,9.399999618530272,-0.3400000035762787,-2.8499999046325684,9.390000343322754,-0.3700000047683716,-2.7799999713897705,45218031
1749119618058120892,-1.6875,3.5625,-3.0625,9.510000228881836,-0.3700000047683716,-2.799999952316284,9.399999618530272,-0.3600000143051147,-2.7699999809265137,45218058
1749119618073137741,-1.5,4.0,-2.625,9.529999732971191,-0.3799999952316284,-2.8299999237060547,9.399999618530272,-0.3499999940395355,-2.75,45218073
1749119618090723487,-1.4375,4.3125,-2.3125,9.550000190734863,-0.3700000047683716,-2.8399999141693115,9.399999618530272,-0.3400000035762787,-2.740000009536743,45218090
1749119618117331891,-1.625,4.9375,-1.875,9.460000038146973,-0.3400000035762787,-2.819999933242798,9.40999984741211,-0.3300000131130218,-2.720000028610229,45218117
1749119618129704723,-2.8125,5.3125,-1.375,9.399999618530272,-0.3700000047683716,-2.809999942779541,9.40999984741211,-0.3199999928474426,-2.7100000381469727,45218129
1749119618147207951,-3.4375,5.625,-1.125,9.260000228881836,-0.4199999868869781,-2.7300000190734863,9.420000076293944,-0.3199999928474426,-2.690000057220459,45218147
1749119618174195451,-3.4375,5.75,-1.5,9.31999969482422,-0.3400000035762787,-2.7100000381469727,9.420000076293944,-0.3100000023841858,-2.6700000762939453,45218174
1749119618190154940,-3.125,5.5625,-1.4375,9.34000015258789,-0.3799999952316284,-2.6700000762939453,9.43000030517578,-0.3100000023841858,-2.6600000858306885,45218190
1749119618215077391,-2.5625,5.4375,-1.375,9.399999618530272,-0.3300000131130218,-2.650000095367432,9.43000030517578,-0.3000000119209289,-2.640000104904175,45218215
1749119618231292532,-2.25,4.875,-1.0,9.449999809265137,-0.3100000023841858,-2.630000114440918,9.4399995803833,-0.2899999916553497,-2.619999885559082,45218231
1749119618249219878,-2.0,4.625,-0.1875,9.529999732971191,-0.25,-2.5799999237060547,9.4399995803833,-0.2899999916553497,-2.609999895095825,45218249
1749119618267063745,-1.5625,4.1875,1.1875,9.460000038146973,-0.2800000011920929,-2.549999952316284,9.449999809265137,-0.2899999916553497,-2.5999999046325684,45218267
1749119618287398569,-1.125,3.625,2.0625,9.43000030517578,-0.3799999952316284,-2.569999933242798,9.449999809265137,-0.3000000119209289,-2.5799999237060547,45218287
1749119618311938019,-0.0625,3.1875,2.25,9.470000267028809,-0.4199999868869781,-2.650000095367432,9.449999809265137,-0.3000000119209289,-2.569999933242798,45218311
1749119618332005712,-0.125,3.25,2.125,9.5,-0.4699999988079071,-2.690000057220459,9.449999809265137,-0.3100000023841858,-2.559999942779541,45218332
1749119618353793196,-0.625,4.0,1.5,9.479999542236328,-0.4399999976158142,-2.690000057220459,9.460000038146973,-0.3199999928474426,-2.549999952316284,45218353
1749119618377065068,-1.375,4.8125,0.75,9.300000190734863,-0.4699999988079071,-2.680000066757202,9.460000038146973,-0.3199999928474426,-2.539999961853028,45218377
1749119618390122959,-1.9375,5.125,0.0625,9.460000038146973,-0.4699999988079071,-2.5199999809265137,9.460000038146973,-0.3199999928474426,-2.5199999809265137,45218390
1749119618413167218,-0.875,4.75,-0.125,9.510000228881836,-0.3300000131130218,-2.4800000190734863,9.470000267028809,-0.3199999928474426,-2.509999990463257,45218413
1749119618440896629,-0.625,4.5625,0.0,9.4399995803833,-0.3300000131130218,-2.5299999713897705,9.470000267028809,-0.3199999928474426,-2.490000009536743,45218440
1749119618444920505,-1.0625,4.5,0.75,9.43000030517578,-0.3799999952316284,-2.490000009536743,9.479999542236328,-0.3199999928474426,-2.4800000190734863,45218444
1749119618467019971,-1.1875,4.125,0.9375,9.43000030517578,-0.3799999952316284,-2.450000047683716,9.479999542236328,-0.3199999928474426,-2.470000028610229,45218467
1749119618489981579,-0.875,3.625,0.875,9.380000114440918,-0.4600000083446502,-2.4600000381469727,9.479999542236328,-0.3300000131130218,-2.450000047683716,45218489
1749119618507201965,-0.375,3.0,0.875,9.4399995803833,-0.4699999988079071,-2.4800000190734863,9.489999771118164,-0.3300000131130218,-2.440000057220459,45218507
1749119618530109282,0.5,2.625,0.625,9.470000267028809,-0.4300000071525574,-2.4200000762939453,9.489999771118164,-0.3300000131130218,-2.440000057220459,45218530
1749119618554295859,0.5,2.5,0.375,9.470000267028809,-0.4300000071525574,-2.490000009536743,9.489999771118164,-0.3300000131130218,-2.430000066757202,45218554
1749119618569021029,1.0,2.3125,0.3125,9.4399995803833,-0.3899999856948852,-2.470000028610229,9.489999771118164,-0.3300000131130218,-2.4200000762939453,45218569
1749119618587144827,1.125,2.3125,0.6875,9.5,-0.3499999940395355,-2.4800000190734863,9.489999771118164,-0.3400000035762787,-2.4100000858306885,45218587
1749119618611861483,1.3125,2.1875,1.5625,9.520000457763672,-0.3000000119209289,-2.440000057220459,9.489999771118164,-0.3400000035762787,-2.4100000858306885,45218611
1749119618629023876,1.125,2.0625,2.5,9.510000228881836,-0.3700000047683716,-2.390000104904175,9.5,-0.3499999940395355,-2.400000095367432,45218629
1749119618653759322,0.625,1.6875,2.9375,9.479999542236328,-0.5099999904632568,-2.430000066757202,9.5,-0.3600000143051147,-2.390000104904175,45218653
1749119618675106398,0.3125,1.5625,2.4375,9.520000457763672,-0.4900000095367431,-2.4800000190734863,9.5,-0.3700000047683716,-2.390000104904175,45218675
1749119618686882327,-0.625,2.125,2.0,9.529999732971191,-0.3700000047683716,-2.5199999809265137,9.5,-0.3700000047683716,-2.380000114440918,45218686
1749119618711936052,-1.75,2.8125,2.5625,9.5,-0.3700000047683716,-2.549999952316284,9.5,-0.3799999952316284,-2.369999885559082,45218711
1749119618735872839,-2.25,3.1875,3.1875,9.539999961853027,-0.2899999916553497,-2.400000095367432,9.5,-0.3899999856948852,-2.359999895095825,45218735
1749119618756682405,-2.375,3.0625,4.375,9.529999732971191,-0.3600000143051147,-2.3399999141693115,9.510000228881836,-0.4000000059604645,-2.3499999046325684,45218756
1749119618770188985,-1.875,2.9375,5.625,9.449999809265137,-0.3899999856948852,-2.3499999046325684,9.510000228881836,-0.4199999868869781,-2.3399999141693115,45218770
1749119618791793176,-2.5,2.5,6.75,9.479999542236328,-0.5299999713897705,-2.400000095367432,9.510000228881836,-0.4399999976158142,-2.3399999141693115,45218791
1749119618815726264,-2.9375,2.5625,6.875,9.550000190734863,-0.5400000214576721,-2.4100000858306885,9.510000228881836,-0.4600000083446502,-2.3299999237060547,45218815
1749119618827284501,-3.9375,2.9375,6.75,9.529999732971191,-0.5699999928474426,-2.380000114440918,9.510000228881836,-0.4699999988079071,-2.319999933242798,45218827
1749119618851839503,-5.375,3.0,6.5,9.479999542236328,-0.6100000143051147,-2.390000104904175,9.510000228881836,-0.4900000095367431,-2.309999942779541,45218851
1749119618875922590,-5.25,2.8125,6.125,9.300000190734863,-0.75,-2.359999895095825,9.510000228881836,-0.5099999904632568,-2.299999952316284,45218875
1749119618886981524,-3.0,1.9375,5.0625,9.479999542236328,-0.8100000023841858,-2.180000066757202,9.510000228881836,-0.5299999713897705,-2.299999952316284,45218886
1749119618910180530,-1.375,0.8125,3.5,9.420000076293944,-0.8799999952316284,-2.240000009536743,9.510000228881836,-0.5400000214576721,-2.289999961853028,45218910
1749119618931480463,0.4375,-0.125,1.5625,9.479999542236328,-0.8299999833106995,-2.369999885559082,9.510000228881836,-0.5600000023841858,-2.289999961853028,45218931
1749119618948344626,0.875,-0.4375,-0.5,9.579999923706056,-0.7300000190734863,-2.430000066757202,9.510000228881836,-0.5600000023841858,-2.289999961853028,45218948
1749119618971926187,-0.1875,0.125,-1.5,9.470000267028809,-0.6700000166893005,-2.4200000762939453,9.510000228881836,-0.5600000023841858,-2.289999961853028,45218971
1749119618989363603,-0.875,0.4375,-2.125,9.460000038146973,-0.6600000262260437,-2.309999942779541,9.510000228881836,-0.550000011920929,-2.299999952316284,45218989
1749119619013376815,-0.875,0.1875,-2.8125,9.520000457763672,-0.6100000143051147,-2.319999933242798,9.510000228881836,-0.5400000214576721,-2.299999952316284,45219013
1749119619032231816,-1.125,0.125,-2.9375,9.539999961853027,-0.5699999928474426,-2.450000047683716,9.510000228881836,-0.5299999713897705,-2.299999952316284,45219032
1749119619055875121,-1.8125,0.6875,-2.5,9.520000457763672,-0.4699999988079071,-2.4100000858306885,9.510000228881836,-0.5199999809265137,-2.299999952316284,45219055
1749119619066822212,-2.25,1.0,-1.0625,9.470000267028809,-0.4699999988079071,-2.259999990463257,9.510000228881836,-0.5199999809265137,-2.289999961853028,45219066
1749119619092061920,-1.1875,0.5,0.125,9.479999542236328,-0.5199999809265137,-2.25,9.510000228881836,-0.5199999809265137,-2.289999961853028,45219092
1749119619111947418,0.1875,-0.1875,0.75,9.5,-0.550000011920929,-2.3499999046325684,9.510000228881836,-0.5199999809265137,-2.289999961853028,45219111
1749119619129224811,0.4375,-0.1875,1.5,9.5,-0.5199999809265137,-2.430000066757202,9.510000228881836,-0.5199999809265137,-2.289999961853028,45219129
1749119619155020201,0.1875,0.375,2.4375,9.529999732971191,-0.4799999892711639,-2.440000057220459,9.510000228881836,-0.5299999713897705,-2.289999961853028,45219155
1749119619171303031,-0.375,1.0,3.3125,9.579999923706056,-0.449999988079071,-2.380000114440918,9.510000228881836,-0.5400000214576721,-2.289999961853028,45219171
1749119619195066878,-1.375,1.75,4.25,9.539999961853027,-0.4900000095367431,-2.3299999237060547,9.510000228881836,-0.550000011920929,-2.289999961853028,45219195
1749119619220256272,-1.75,2.0,5.5,9.56999969482422,-0.5199999809265137,-2.309999942779541,9.510000228881836,-0.5699999928474426,-2.2799999713897705,45219220
1749119619226926292,-3.0625,2.0,6.375,9.619999885559082,-0.6399999856948853,-2.299999952316284,9.510000228881836,-0.5799999833106995,-2.2799999713897705,45219226
1749119619250115903,-3.625,1.9375,6.8125,9.550000190734863,-0.7099999785423279,-2.309999942779541,9.510000228881836,-0.6000000238418579,-2.2699999809265137,45219250
1749119619268077280,-3.25,2.0625,7.1875,9.380000114440918,-0.7900000214576721,-2.319999933242798,9.510000228881836,-0.6200000047683716,-2.2699999809265137,45219268
1749119619287391406,-2.4375,1.5625,6.875,9.369999885559082,-0.8899999856948853,-2.2799999713897705,9.510000228881836,-0.6499999761581421,-2.259999990463257,45219287
1749119619311910760,-0.4375,0.6875,5.8125,9.43000030517578,-0.959999978542328,-2.2799999713897705,9.510000228881836,-0.6700000166893005,-2.259999990463257,45219311
1749119619329074094,1.25,-0.125,3.5,9.4399995803833,-1.059999942779541,-2.25,9.510000228881836,-0.6899999976158142,-2.259999990463257,45219329
1749119619348951158,2.875,-0.8125,0.625,9.479999542236328,-1.0499999523162842,-2.3499999046325684,9.510000228881836,-0.699999988079071,-2.259999990463257,45219348
1749119619373937737,3.25,-0.8125,-2.4375,9.529999732971191,-0.9800000190734864,-2.390000104904175,9.510000228881836,-0.7099999785423279,-2.2699999809265137,45219373
1749119619387216586,3.3125,-0.625,-4.5625,9.510000228881836,-0.8500000238418579,-2.400000095367432,9.510000228881836,-0.699999988079071,-2.2699999809265137,45219387
1749119619412179733,2.6875,-0.125,-5.4375,9.479999542236328,-0.6700000166893005,-2.3399999141693115,9.510000228881836,-0.6899999976158142,-2.2699999809265137,45219412
1749119619435066640,2.0,-0.1875,-5.125,9.43000030517578,-0.5799999833106995,-2.289999961853028,9.510000228881836,-0.6700000166893005,-2.2699999809265137,45219435
1749119619455081175,1.6875,-0.5625,-4.0,9.3100004196167,-0.6399999856948853,-2.240000009536743,9.510000228881836,-0.6600000262260437,-2.2699999809265137,45219455
1749119619475726744,2.8125,-1.3125,-3.5,9.399999618530272,-0.7300000190734863,-2.3399999141693115,9.510000228881836,-0.6499999761581421,-2.2699999809265137,45219475
1749119619495231009,4.375,-1.9375,-3.3125,9.770000457763672,-0.5600000023841858,-2.319999933242798,9.510000228881836,-0.6399999856948853,-2.2799999713897705,45219495
1749119619517176578,2.1875,-0.6875,-2.6875,9.59000015258789,-0.5299999713897705,-2.690000057220459,9.510000228881836,-0.6299999952316284,-2.2799999713897705,45219517
1749119619531207865,-0.875,1.6875,-1.5,9.699999809265137,-0.6100000143051147,-2.5999999046325684,9.510000228881836,-0.6299999952316284,-2.2799999713897705,45219531
1749119619557142730,-1.0625,2.5,-0.4375,9.649999618530272,-0.550000011920929,-2.059999942779541,9.510000228881836,-0.6299999952316284,-2.2699999809265137,45219557
1749119619570960978,0.3125,1.5,0.875,9.5,-0.5699999928474426,-2.069999933242798,9.510000228881836,-0.6299999952316284,-2.259999990463257,45219570
1749119619594972686,1.5625,0.625,2.375,9.329999923706056,-0.5400000214576721,-2.369999885559082,9.520000457763672,-0.6299999952316284,-2.259999990463257,45219594
1749119619620932099,0.6875,0.375,3.5,9.399999618530272,-0.6399999856948853,-2.430000066757202,9.510000228881836,-0.6499999761581421,-2.259999990463257,45219620
1749119619626841948,-0.5,0.6875,4.3125,9.520000457763672,-0.6600000262260437,-2.3299999237060547,9.510000228881836,-0.6600000262260437,-2.259999990463257,45219626
1749119619652048257,-0.9375,0.875,4.4375,9.630000114440918,-0.8100000023841858,-2.240000009536743,9.510000228881836,-0.6700000166893005,-2.259999990463257,45219652
1749119619676149661,-0.125,0.6875,3.5625,9.56999969482422,-0.9100000262260436,-2.2699999809265137,9.510000228881836,-0.6899999976158142,-2.25,45219676
1749119619701313608,1.1875,-0.0625,1.6875,9.4399995803833,-1.0399999618530271,-2.2300000190734863,9.510000228881836,-0.6899999976158142,-2.25,45219701
1749119619726085184,1.5625,-0.75,-1.1875,9.380000114440918,-0.949999988079071,-2.299999952316284,9.510000228881836,-0.699999988079071,-2.25,45219726
1749119619742295621,0.9375,-1.0625,-2.9375,9.350000381469728,-0.8799999952316284,-2.359999895095825,9.510000228881836,-0.6899999976158142,-2.259999990463257,45219742
1749119619752999791,1.5,-1.625,-4.375,9.460000038146973,-0.8700000047683716,-2.259999990463257,9.510000228881836,-0.6800000071525574,-2.259999990463257,45219752
1749119619765718430,2.125,-2.0,-5.4375,9.520000457763672,-0.8500000238418579,-2.2799999713897705,9.510000228881836,-0.6700000166893005,-2.2699999809265137,45219765
1749119619841072085,3.5,-2.375,-6.4375,9.550000190734863,-0.7900000214576721,-2.309999942779541,9.510000228881836,-0.6499999761581421,-2.2799999713897705,45219841
1749119619867052758,4.6875,-2.3125,-7.375,9.510000228881836,-0.7900000214576721,-2.4200000762939453,9.510000228881836,-0.6299999952316284,-2.2799999713897705,45219867
1749119619891276647,5.1875,-1.8125,-7.6875,9.489999771118164,-0.5600000023841858,-2.490000009536743,9.510000228881836,-0.6100000143051147,-2.289999961853028,45219891
1749119619910129932,3.875,-0.9375,-7.4375,9.579999923706056,-0.5299999713897705,-2.4200000762939453,9.510000228881836,-0.5899999737739563,-2.299999952316284,45219910
1749119619913998566,2.6875,-0.5,-6.8125,9.550000190734863,-0.5600000023841858,-2.3299999237060547,9.510000228881836,-0.5699999928474426,-2.299999952316284,45219913
1749119619930307436,3.125,-0.625,-6.4375,9.449999809265137,-0.6600000262260437,-2.319999933242798,9.510000228881836,-0.550000011920929,-2.299999952316284,45219930
1749119619936082121,4.125,-1.0625,-6.6875,9.470000267028809,-0.6299999952316284,-2.3499999046325684,9.510000228881836,-0.5400000214576721,-2.299999952316284,45219936
1749119619939888154,4.8125,-1.3125,-6.75,9.4399995803833,-0.6200000047683716,-2.3299999237060547,9.510000228881836,-0.5199999809265137,-2.299999952316284,45219939
1749119619959810428,5.25,-1.75,-6.9375,9.5,-0.4900000095367431,-2.3299999237060547,9.510000228881836,-0.5,-2.309999942779541,45219959
1749119619966764386,4.5,-1.5625,-7.3125,9.449999809265137,-0.5199999809265137,-2.400000095367432,9.510000228881836,-0.4799999892711639,-2.309999942779541,45219966
1749119619990008469,3.4375,-1.375,-7.5,9.4399995803833,-0.5699999928474426,-2.4200000762939453,9.510000228881836,-0.4600000083446502,-2.319999933242798,45219990
1749119620006159133,2.875,-1.5,-8.4375,9.479999542236328,-0.6899999976158142,-2.319999933242798,9.510000228881836,-0.4399999976158142,-2.319999933242798,45220006
1749119620027017525,4.125,-1.625,-10.4375,9.640000343322754,-0.5899999737739563,-2.359999895095825,9.510000228881836,-0.4099999964237213,-2.3299999237060547,45220027
1749119620046814676,4.875,-1.4375,-11.8125,9.600000381469728,-0.5199999809265137,-2.4200000762939453,9.510000228881836,-0.3799999952316284,-2.3299999237060547,45220046
1749119620070116006,2.5625,-0.8125,-12.0,9.40999984741211,-0.3199999928474426,-2.390000104904175,9.510000228881836,-0.3499999940395355,-2.3299999237060547,45220070
1749119620091222685,1.25,-1.1875,-11.6875,9.579999923706056,-0.3199999928474426,-2.190000057220459,9.510000228881836,-0.3100000023841858,-2.3399999141693115,45220091
1749119620107022770,2.6875,-2.25,-11.3125,9.5,-0.1800000071525573,-2.25,9.510000228881836,-0.2800000011920929,-2.3399999141693115,45220107
1749119620132101652,2.625,-3.0625,-9.75,9.579999923706056,0.0599999986588954,-2.390000104904175,9.510000228881836,-0.2399999946355819,-2.3499999046325684,45220132
1749119620152161711,0.9375,-2.875,-6.5,9.510000228881836,0.1199999973177909,-2.4800000190734863,9.510000228881836,-0.2199999988079071,-2.359999895095825,45220152
1749119620175058441,-0.25,-2.9375,-2.875,9.43000030517578,0.0799999982118606,-2.400000095367432,9.510000228881836,-0.209999993443489,-2.369999885559082,45220175
1749119620198401923,0.375,-3.0625,0.25,9.579999923706056,-0.0399999991059303,-2.4200000762939453,9.5,-0.2000000029802322,-2.380000114440918,45220198
1749119620207313837,0.9375,-2.875,2.8125,9.550000190734863,-0.050000000745058,-2.440000057220459,9.5,-0.209999993443489,-2.390000104904175,45220207
1749119620250874580,0.0625,-2.375,4.6875,9.5,-0.1800000071525573,-2.5799999237060547,9.5,-0.2199999988079071,-2.400000095367432,45220250
1749119620261104485,-1.25,-1.125,5.4375,9.579999923706056,-0.2899999916553497,-2.569999933242798,9.5,-0.2399999946355819,-2.4100000858306885,45220261
1749119620268773302,-1.8125,-0.4375,5.5,9.510000228881836,-0.3799999952316284,-2.400000095367432,9.5,-0.25,-2.4100000858306885,45220268
1749119620295869135,-1.125,-0.5625,4.5,9.4399995803833,-0.4699999988079071,-2.4100000858306885,9.5,-0.270000010728836,-2.4100000858306885,45220295
1749119620310114436,0.625,-0.8125,3.375,9.390000343322754,-0.4399999976158142,-2.470000028610229,9.5,-0.2800000011920929,-2.4100000858306885,45220310
1749119620334206968,0.75,-0.9375,2.3125,9.4399995803833,-0.4199999868869781,-2.4800000190734863,9.489999771118164,-0.2899999916553497,-2.4100000858306885,45220334
1749119620350074740,0.0,-0.8125,1.4375,9.529999732971191,-0.4000000059604645,-2.470000028610229,9.489999771118164,-0.3000000119209289,-2.4200000762939453,45220350
1749119620377898964,-0.75,-0.5625,1.0625,9.449999809265137,-0.3700000047683716,-2.440000057220459,9.489999771118164,-0.3000000119209289,-2.4200000762939453,45220377
1749119620387167273,-0.75,-0.875,0.625,9.420000076293944,-0.4900000095367431,-2.400000095367432,9.489999771118164,-0.3100000023841858,-2.4200000762939453,45220387
1749119620409910797,0.375,-1.375,0.0,9.510000228881836,-0.3700000047683716,-2.400000095367432,9.489999771118164,-0.3100000023841858,-2.430000066757202,45220409
1749119620429173368,0.875,-1.6875,0.0625,9.59000015258789,-0.3400000035762787,-2.509999990463257,9.489999771118164,-0.3100000023841858,-2.430000066757202,45220429
1749119620450895911,0.75,-1.375,0.0625,9.510000228881836,-0.3600000143051147,-2.569999933242798,9.489999771118164,-0.3100000023841858,-2.440000057220459,45220450
1749119620466781586,0.5,-1.0,-0.1875,9.43000030517578,-0.4399999976158142,-2.4800000190734863,9.489999771118164,-0.3100000023841858,-2.440000057220459,45220466
1749119620492418101,0.375,-1.0,-0.8125,9.399999618530272,-0.4399999976158142,-2.4600000381469727,9.489999771118164,-0.3100000023841858,-2.440000057220459,45220492
1749119620508165797,0.875,-1.1875,-1.375,9.43000030517578,-0.4199999868869781,-2.440000057220459,9.479999542236328,-0.3100000023841858,-2.450000047683716,45220508
1749119620532214090,1.6875,-1.625,-1.875,9.489999771118164,-0.3899999856948852,-2.4600000381469727,9.479999542236328,-0.3000000119209289,-2.450000047683716,45220532
1749119620554184511,1.6875,-1.5,-1.9375,9.5,-0.2899999916553497,-2.549999952316284,9.479999542236328,-0.3000000119209289,-2.4600000381469727,45220554
1749119620578806904,1.25,-1.3125,-1.375,9.5,-0.2399999946355819,-2.509999990463257,9.479999542236328,-0.2899999916553497,-2.4600000381469727,45220578
1749119620596224217,1.0625,-1.375,-0.4375,9.369999885559082,-0.209999993443489,-2.470000028610229,9.479999542236328,-0.2899999916553497,-2.470000028610229,45220596
1749119620610084977,1.125,-1.9375,1.1875,9.479999542236328,-0.2899999916553497,-2.549999952316284,9.479999542236328,-0.3000000119209289,-2.470000028610229,45220610
1749119620634960194,1.75,-1.9375,2.1875,9.619999885559082,-0.2300000041723251,-2.490000009536743,9.479999542236328,-0.3000000119209289,-2.4800000190734863,45220634
1749119620651822023,2.0,-2.125,3.625,9.649999618530272,-0.2399999946355819,-2.509999990463257,9.470000267028809,-0.3199999928474426,-2.490000009536743,45220651
1749119620674976731,1.875,-1.75,4.375,9.520000457763672,-0.4300000071525574,-2.640000104904175,9.470000267028809,-0.3300000131130218,-2.490000009536743,45220674
1749119620685955529,1.375,-1.375,3.9375,9.449999809265137,-0.5199999809265137,-2.539999961853028,9.470000267028809,-0.3499999940395355,-2.5,45220685
1749119620711160836,1.0,-1.3125,2.875,9.329999923706056,-0.5799999833106995,-2.559999942779541,9.470000267028809,-0.3600000143051147,-2.5,45220711
1749119620729191454,1.3125,-1.625,1.1875,9.369999885559082,-0.5699999928474426,-2.5199999809265137,9.470000267028809,-0.3700000047683716,-2.509999990463257,45220729
1749119620752727193,1.375,-1.5625,-0.5625,9.399999618530272,-0.5600000023841858,-2.549999952316284,9.470000267028809,-0.3700000047683716,-2.509999990463257,45220752
1749119620777046084,1.375,-1.875,-1.9375,9.4399995803833,-0.5699999928474426,-2.559999942779541,9.460000038146973,-0.3700000047683716,-2.5199999809265137,45220777
1749119620790361061,1.1875,-1.875,-2.9375,9.5,-0.449999988079071,-2.5799999237060547,9.460000038146973,-0.3600000143051147,-2.5199999809265137,45220790
1749119620816072675,0.375,-1.5625,-3.375,9.529999732971191,-0.3600000143051147,-2.5999999046325684,9.460000038146973,-0.3499999940395355,-2.5299999713897705,45220816
1749119620836065994,-0.5625,-1.3125,-2.75,9.5,-0.3300000131130218,-2.5899999141693115,9.460000038146973,-0.3400000035762787,-2.5299999713897705,45220836
1749119620847054923,-1.0625,-1.4375,-2.3125,9.399999618530272,-0.3700000047683716,-2.549999952316284,9.460000038146973,-0.3300000131130218,-2.539999961853028,45220847
1749119620874975601,-0.9375,-1.75,-2.0625,9.390000343322754,-0.3799999952316284,-2.5,9.460000038146973,-0.3300000131130218,-2.539999961853028,45220874
1749119620889133739,-0.25,-2.5625,-1.9375,9.4399995803833,-0.4000000059604645,-2.490000009536743,9.460000038146973,-0.3199999928474426,-2.549999952316284,45220889
1749119620912117432,1.0625,-3.0625,-2.0,9.449999809265137,-0.4000000059604645,-2.619999885559082,9.449999809265137,-0.3100000023841858,-2.559999942779541,45220912
1749119620934418118,1.625,-3.125,-1.9375,9.479999542236328,-0.3499999940395355,-2.6700000762939453,9.449999809265137,-0.3100000023841858,-2.569999933242798,45220934
1749119620952877439,1.0625,-2.9375,-1.5,9.449999809265137,-0.2899999916553497,-2.6700000762939453,9.449999809265137,-0.3100000023841858,-2.5799999237060547,45220952
1749119620977028129,0.3125,-2.4375,-0.8125,9.449999809265137,-0.2599999904632568,-2.680000066757202,9.449999809265137,-0.3000000119209289,-2.5899999141693115,45220977
1749119621001745071,-0.125,-2.4375,-0.3125,9.40999984741211,-0.3000000119209289,-2.630000114440918,9.4399995803833,-0.3000000119209289,-2.5999999046325684,45221001
1749119621013931938,-0.25,-2.625,0.125,9.279999732971191,-0.270000010728836,-2.569999933242798,9.4399995803833,-0.3000000119209289,-2.609999895095825,45221013
1749119621028820712,0.0625,-3.125,0.625,9.5,-0.3100000023841858,-2.609999895095825,9.4399995803833,-0.3000000119209289,-2.619999885559082,45221028
1749119621051859195,0.5,-3.125,1.625,9.619999885559082,-0.209999993443489,-2.75,9.4399995803833,-0.3100000023841858,-2.630000114440918,45221051
1749119621067972859,0.4375,-2.0,2.5625,9.619999885559082,-0.4099999964237213,-2.8499999046325684,9.43000030517578,-0.3199999928474426,-2.630000114440918,45221067
1749119621092023497,0.4375,-0.8125,2.3125,9.579999923706056,-0.5,-2.799999952316284,9.43000030517578,-0.3300000131130218,-2.640000104904175,45221092
1749119621110197337,0.0,0.625,0.6875,9.399999618530272,-0.6100000143051147,-2.7699999809265137,9.43000030517578,-0.3300000131130218,-2.640000104904175,45221110
1749119621125783380,-0.125,1.3125,-2.0,9.220000267028809,-0.6299999952316284,-2.7699999809265137,9.43000030517578,-0.3300000131130218,-2.640000104904175,45221125
1749119621153032269,-0.5625,1.4375,-4.25,9.15999984741211,-0.550000011920929,-2.609999895095825,9.4399995803833,-0.3199999928474426,-2.630000114440918,45221153
1749119621169323327,-0.3125,0.6875,-5.875,9.260000228881836,-0.4399999976158142,-2.5299999713897705,9.4399995803833,-0.3000000119209289,-2.630000114440918,45221169
1749119621189155039,1.0625,-0.625,-6.125,9.4399995803833,-0.3400000035762787,-2.490000009536743,9.4399995803833,-0.2800000011920929,-2.630000114440918,45221189
1749119621207097598,2.3125,-1.375,-6.125,9.529999732971191,-0.3199999928474426,-2.640000104904175,9.4399995803833,-0.2599999904632568,-2.630000114440918,45221207
1749119621228883647,2.625,-1.6875,-5.125,9.550000190734863,-0.0299999993294477,-2.6700000762939453,9.4399995803833,-0.25,-2.640000104904175,45221228
1749119621255199708,0.875,-1.375,-2.625,9.489999771118164,-0.0700000002980232,-2.7100000381469727,9.43000030517578,-0.2399999946355819,-2.640000104904175,45221255
1749119621269229711,-0.125,-1.1875,0.0,9.4399995803833,-0.0799999982118606,-2.680000066757202,9.43000030517578,-0.2399999946355819,-2.650000095367432,45221269
1749119621285999520,0.125,-1.375,1.5625,9.40999984741211,-0.2399999946355819,-2.650000095367432,9.43000030517578,-0.2399999946355819,-2.650000095367432,45221285
1749119621312846382,1.1875,-1.5625,1.875,9.399999618530272,-0.3300000131130218,-2.680000066757202,9.43000030517578,-0.25,-2.650000095367432,45221312
1749119621329146198,2.1875,-1.625,1.4375,9.470000267028809,-0.3799999952316284,-2.7100000381469727,9.43000030517578,-0.2599999904632568,-2.6600000858306885,45221329
1749119621354934229,2.5,-1.1875,0.8125,9.449999809265137,-0.3899999856948852,-2.789999961853028,9.43000030517578,-0.2599999904632568,-2.6600000858306885,45221354
1749119621370969553,1.5,-0.1875,0.5625,9.34000015258789,-0.3499999940395355,-2.8499999046325684,9.43000030517578,-0.270000010728836,-2.6700000762939453,45221370
1749119621396010402,1.0,0.4375,0.375,9.43000030517578,-0.3499999940395355,-2.690000057220459,9.43000030517578,-0.270000010728836,-2.6700000762939453,45221396
1749119621410004582,1.125,0.375,-0.1875,9.479999542236328,-0.4000000059604645,-2.5799999237060547,9.43000030517578,-0.270000010728836,-2.6700000762939453,45221410
1749119621430487984,2.4375,-0.3125,-1.25,9.40999984741211,-0.5099999904632568,-2.690000057220459,9.43000030517578,-0.270000010728836,-2.6700000762939453,45221430
1749119621449259179,3.6875,-0.25,-2.0625,9.399999618530272,-0.4199999868869781,-2.7300000190734863,9.43000030517578,-0.270000010728836,-2.6700000762939453,45221449
1749119621467005678,2.9375,0.0625,-2.375,9.359999656677246,-0.3300000131130218,-2.7699999809265137,9.43000030517578,-0.2599999904632568,-2.6700000762939453,45221467
1749119621493821298,2.75,0.0625,-2.625,9.380000114440918,-0.3600000143051147,-2.7100000381469727,9.43000030517578,-0.2599999904632568,-2.6700000762939453,45221493
1749119621520123153,2.875,-0.3125,-3.125,9.390000343322754,-0.3700000047683716,-2.650000095367432,9.43000030517578,-0.25,-2.6700000762939453,45221520
1749119621534018541,3.375,-0.75,-3.1875,9.399999618530272,-0.2899999916553497,-2.640000104904175,9.43000030517578,-0.25,-2.6700000762939453,45221534
1749119621556205190,3.4375,-1.375,-3.0625,9.420000076293944,-0.2800000011920929,-2.650000095367432,9.43000030517578,-0.2399999946355819,-2.6700000762939453,45221556
1749119621579973010,3.25,-1.9375,-2.6875,9.43000030517578,-0.1899999976158142,-2.650000095367432,9.420000076293944,-0.2300000041723251,-2.680000066757202,45221579
1749119621587089092,2.625,-2.5,-1.4375,9.420000076293944,-0.1000000014901161,-2.6700000762939453,9.420000076293944,-0.2300000041723251,-2.690000057220459,45221587
1749119621611066919,1.5625,-2.8125,0.0625,9.43000030517578,-0.1099999994039535,-2.7100000381469727,9.420000076293944,-0.2300000041723251,-2.690000057220459,45221611
1749119621636121014,0.5,-2.9375,1.625,9.420000076293944,-0.1500000059604644,-2.6700000762939453,9.420000076293944,-0.2300000041723251,-2.700000047683716,45221636
1749119621646963341,0.25,-3.25,2.25,9.40999984741211,-0.209999993443489,-2.720000028610229,9.40999984741211,-0.2399999946355819,-2.7100000381469727,45221646
1749119621667151420,-0.3125,-3.6875,3.1875,9.390000343322754,-0.2800000011920929,-2.690000057220459,9.40999984741211,-0.25,-2.7300000190734863,45221667
1749119621689063219,-0.1875,-4.375,3.5,9.40999984741211,-0.3199999928474426,-2.740000009536743,9.40999984741211,-0.2599999904632568,-2.740000009536743,45221689
1749119621714048051,-0.125,-4.375,3.4375,9.369999885559082,-0.3499999940395355,-2.7799999713897705,9.399999618530272,-0.270000010728836,-2.75,45221714
1749119621737266291,-0.0625,-4.4375,3.4375,9.399999618530272,-0.3700000047683716,-2.8499999046325684,9.399999618530272,-0.2800000011920929,-2.7699999809265137,45221737
1749119621746901952,-0.1875,-4.5,3.0,9.420000076293944,-0.3899999856948852,-2.809999942779541,9.390000343322754,-0.2899999916553497,-2.7799999713897705,45221746
1749119621771931025,-0.125,-4.25,2.8125,9.390000343322754,-0.449999988079071,-2.8299999237060547,9.390000343322754,-0.3000000119209289,-2.789999961853028,45221771
1749119621789940526,0.375,-4.3125,2.375,9.329999923706056,-0.4399999976158142,-2.8499999046325684,9.380000114440918,-0.3100000023841858,-2.809999942779541,45221789
1749119621812336135,1.125,-4.3125,1.6875,9.350000381469728,-0.4900000095367431,-2.880000114440918,9.380000114440918,-0.3199999928474426,-2.819999933242798,45221812
1749119621826036139,1.9375,-4.375,0.875,9.380000114440918,-0.4399999976158142,-2.890000104904175,9.369999885559082,-0.3300000131130218,-2.8399999141693115,45221826
1749119621848105646,2.375,-4.125,0.25,9.40999984741211,-0.4199999868869781,-2.9100000858306885,9.369999885559082,-0.3300000131130218,-2.8499999046325684,45221848
1749119621873019955,2.6875,-3.75,-0.4375,9.359999656677246,-0.4799999892711639,-2.9100000858306885,9.369999885559082,-0.3300000131130218,-2.859999895095825,45221873
1749119621890781660,2.5625,-3.625,-1.0,9.359999656677246,-0.4199999868869781,-2.9600000381469727,9.359999656677246,-0.3300000131130218,-2.869999885559082,45221890
1749119621909168597,1.9375,-3.25,-1.3125,9.3100004196167,-0.3700000047683716,-2.9200000762939453,9.359999656677246,-0.3300000131130218,-2.880000114440918,45221909
1749119621936166632,1.6875,-3.4375,-1.125,9.289999961853027,-0.3400000035762787,-2.890000104904175,9.359999656677246,-0.3300000131130218,-2.900000095367432,45221936
1749119621953128851,1.9375,-3.5,-1.25,9.31999969482422,-0.3300000131130218,-2.880000114440918,9.350000381469728,-0.3300000131130218,-2.9100000858306885,45221953
1749119621977178528,2.0,-3.6875,-0.9375,9.380000114440918,-0.3100000023841858,-2.9100000858306885,9.350000381469728,-0.3300000131130218,-2.9200000762939453,45221977
1749119621991022338,1.75,-3.875,-0.75,9.420000076293944,-0.4099999964237213,-2.9200000762939453,9.350000381469728,-0.3300000131130218,-2.930000066757202,45221991
1749119622015969485,1.5625,-3.9375,-0.75,9.369999885559082,-0.4099999964237213,-2.9800000190734863,9.34000015258789,-0.3300000131130218,-2.940000057220459,45222015
1749119622025781255,1.6875,-3.8125,-1.3125,9.289999961853027,-0.4799999892711639,-3.0,9.34000015258789,-0.3199999928474426,-2.950000047683716,45222025
1749119622051043659,1.6875,-3.875,-1.9375,9.260000228881836,-0.4699999988079071,-3.0,9.329999923706056,-0.3199999928474426,-2.970000028610229,45222051
1749119622070122917,2.625,-4.0625,-2.625,9.25,-0.4199999868869781,-3.0,9.329999923706056,-0.3199999928474426,-2.9800000190734863,45222070
1749119622087051421,3.3125,-4.125,-2.9375,9.289999961853027,-0.4199999868869781,-3.009999990463257,9.329999923706056,-0.3100000023841858,-2.990000009536743,45222087
1749119622112009468,4.25,-4.5,-3.3125,9.270000457763672,-0.4199999868869781,-3.039999961853028,9.31999969482422,-0.3100000023841858,-3.009999990463257,45222112
1749119622135119248,5.0,-4.875,-3.3125,9.329999923706056,-0.4300000071525574,-3.0299999713897705,9.31999969482422,-0.3000000119209289,-3.0199999809265137,45222135
1749119622161930494,6.875,-5.1875,-3.875,9.300000190734863,-0.4000000059604645,-3.049999952316284,9.3100004196167,-0.3000000119209289,-3.039999961853028,45222161
1749119622169093351,7.8125,-5.5,-3.875,9.350000381469728,-0.3199999928474426,-3.0899999141693115,9.3100004196167,-0.2899999916553497,-3.049999952316284,45222169
1749119622195046754,8.1875,-5.8125,-3.75,9.40999984741211,-0.3799999952316284,-3.0199999809265137,9.300000190734863,-0.2899999916553497,-3.069999933242798,45222195
1749119622209033645,9.125,-6.0625,-3.75,9.390000343322754,-0.3600000143051147,-3.039999961853028,9.300000190734863,-0.2899999916553497,-3.0899999141693115,45222209
1749119622226993788,9.875,-6.5,-3.5625,9.31999969482422,-0.3000000119209289,-3.069999933242798,9.289999961853027,-0.2899999916553497,-3.109999895095825,45222226
1749119622247060655,9.5625,-7.1875,-3.0625,9.220000267028809,-0.25,-3.0999999046325684,9.279999732971191,-0.2899999916553497,-3.130000114440918,45222247
1749119622272964587,8.6875,-7.5625,-2.125,9.220000267028809,-0.2199999988079071,-3.119999885559082,9.279999732971191,-0.2899999916553497,-3.150000095367432,45222272
1749119622286978927,7.875,-8.3125,-1.0,9.199999809265137,-0.2000000029802322,-3.1600000858306885,9.270000457763672,-0.2899999916553497,-3.180000066757202,45222286
1749119622312009345,7.1875,-8.75,0.125,9.1899995803833,-0.209999993443489,-3.190000057220459,9.260000228881836,-0.3000000119209289,-3.200000047683716,45222312
1749119622336102780,6.4375,-9.3125,1.25,9.220000267028809,-0.3199999928474426,-3.200000047683716,9.25,-0.3100000023841858,-3.2300000190734863,45222336
1749119622380135493,6.875,-9.9375,2.0625,9.25,-0.2899999916553497,-3.2100000381469727,9.239999771118164,-0.3300000131130218,-3.259999990463257,45222380
1749119622404929706,7.6875,-10.8125,3.0625,9.25,-0.2399999946355819,-3.240000009536743,9.220000267028809,-0.3400000035762787,-3.289999961853028,45222404
1749119622430249431,8.625,-11.75,4.375,9.260000228881836,-0.1800000071525573,-3.3299999237060547,9.210000038146973,-0.3700000047683716,-3.3299999237060547,45222430
1749119622455984120,7.875,-12.25,6.4375,9.25,-0.1500000059604644,-3.3499999046325684,9.199999809265137,-0.3899999856948852,-3.359999895095825,45222455
1749119622480024093,7.25,-12.3125,8.6875,9.199999809265137,-0.2300000041723251,-3.490000009536743,9.18000030517578,-0.4199999868869781,-3.400000095367432,45222480
1749119622484017227,5.5,-11.625,10.8125,9.18000030517578,-0.3899999856948852,-3.5299999713897705,9.170000076293944,-0.4600000083446502,-3.440000057220459,45222484
1749119622491879714,3.8125,-10.6875,12.0625,9.130000114440918,-0.5199999809265137,-3.650000095367432,9.140000343322754,-0.5199999809265137,-3.490000009536743,45222491
1749119622511318749,3.0625,-9.75,12.375,9.06999969482422,-0.7599999904632568,-3.650000095367432,9.140000343322754,-0.5400000214576721,-3.5,45222511
1749119622513880150,2.8125,-8.5625,11.6875,9.09000015258789,-0.7400000095367432,-3.640000104904175,9.119999885559082,-0.6000000238418579,-3.539999961853028,45222513
1749119622528854121,1.6875,-7.25,10.25,9.050000190734863,-0.7400000095367432,-3.5999999046325684,9.109999656677246,-0.6200000047683716,-3.549999952316284,45222528
1749119622552162959,-0.375,-6.25,9.1875,9.0600004196167,-0.7699999809265137,-3.609999895095825,9.100000381469728,-0.6499999761581421,-3.569999933242798,45222552
1749119622576108930,-1.625,-5.6875,8.5,9.0600004196167,-0.8299999833106995,-3.680000066757202,9.09000015258789,-0.6700000166893005,-3.5899999141693115,45222576
1749119622589709620,-1.8125,-5.0625,8.0625,9.06999969482422,-0.6899999976158142,-3.680000066757202,9.079999923706056,-0.699999988079071,-3.609999895095825,45222589
1749119622613904505,-3.6875,-4.375,8.625,9.109999656677246,-0.6499999761581421,-3.680000066757202,9.079999923706056,-0.7200000286102295,-3.619999885559082,45222613
1749119622629923138,-5.375,-3.8125,9.4375,9.100000381469728,-0.7099999785423279,-3.680000066757202,9.06999969482422,-0.7400000095367432,-3.640000104904175,45222629
1749119622649036237,-4.9375,-3.375,10.0,9.0600004196167,-0.699999988079071,-3.670000076293945,9.0600004196167,-0.7699999809265137,-3.650000095367432,45222649
1749119622675093984,-5.8125,-2.8125,10.25,8.979999542236328,-0.7799999713897705,-3.7200000286102295,9.0600004196167,-0.7900000214576721,-3.660000085830689,45222675
1749119622700279801,-8.3125,-2.3125,10.625,8.979999542236328,-0.8199999928474426,-3.670000076293945,9.050000190734863,-0.8100000023841858,-3.670000076293945,45222700
1749119622710047250,-9.5,-2.0,10.4375,9.050000190734863,-1.1399999856948853,-3.680000066757202,9.050000190734863,-0.8299999833106995,-3.680000066757202,45222710
1749119622733116491,-8.75,-1.6875,9.4375,8.979999542236328,-0.9800000190734864,-3.700000047683716,9.039999961853027,-0.8500000238418579,-3.690000057220459,45222733
1749119622758029865,-8.8125,-1.75,8.1875,9.0,-1.0800000429153442,-3.690000057220459,9.029999732971191,-0.8700000047683716,-3.700000047683716,45222758
1749119622771240836,-9.1875,-1.3125,6.8125,8.920000076293945,-1.2000000476837158,-3.75,9.029999732971191,-0.8799999952316284,-3.700000047683716,45222771
1749119622787991580,-9.375,-1.375,5.5,9.0,-1.1799999475479126,-3.7200000286102295,9.029999732971191,-0.8899999856948853,-3.7100000381469727,45222787
1749119622814245027,-8.0625,-1.0625,4.375,9.020000457763672,-1.1100000143051147,-3.7699999809265137,9.020000457763672,-0.8999999761581421,-3.7100000381469727,45222814
1749119622833087931,-6.75,-0.75,3.625,8.960000038146973,-1.1299999952316284,-3.799999952316284,9.020000457763672,-0.8999999761581421,-3.7200000286102295,45222833
1749119622849170095,-4.8125,-0.75,2.5,8.960000038146973,-1.090000033378601,-3.7799999713897705,9.020000457763672,-0.9100000262260436,-3.7200000286102295,45222849
1749119622871531868,-3.6875,-0.8125,1.1875,9.010000228881836,-1.1200000047683716,-3.7699999809265137,9.020000457763672,-0.9100000262260436,-3.7300000190734863,45222871
1749119622888187573,-2.1875,-0.5625,-0.625,8.970000267028809,-1.1100000143051147,-3.809999942779541,9.020000457763672,-0.9100000262260436,-3.7300000190734863,45222888
1749119622911262672,-1.0,-0.4375,-1.875,9.020000457763672,-0.949999988079071,-3.809999942779541,9.020000457763672,-0.8999999761581421,-3.7300000190734863,45222911
1749119622932132795,-1.1875,0.0625,-2.0,8.979999542236328,-0.9700000286102296,-3.7899999618530273,9.020000457763672,-0.8899999856948853,-3.7300000190734863,45222932
1749119622950938087,-1.4375,0.4375,-2.125,8.970000267028809,-0.9100000262260436,-3.809999942779541,9.020000457763672,-0.8899999856948853,-3.7300000190734863,45222950
1749119622977263274,-1.6875,0.875,-1.9375,8.979999542236328,-0.8700000047683716,-3.7799999713897705,9.020000457763672,-0.8799999952316284,-3.7300000190734863,45222977
1749119622987329309,-1.3125,1.0,-1.6875,9.0,-0.8299999833106995,-3.7200000286102295,9.020000457763672,-0.8700000047683716,-3.7300000190734863,45222987
1749119623012159762,-1.25,1.0625,-1.0625,9.029999732971191,-0.8399999737739563,-3.75,9.020000457763672,-0.8700000047683716,-3.7300000190734863,45223012
1749119623037641801,-0.3125,1.125,-0.5625,9.029999732971191,-0.8399999737739563,-3.75,9.020000457763672,-0.8600000143051147,-3.7200000286102295,45223037
1749119623056462381,-0.4375,1.4375,-0.25,9.039999961853027,-0.8700000047683716,-3.809999942779541,9.020000457763672,-0.8600000143051147,-3.7200000286102295,45223056
1749119623079024072,0.125,1.6875,0.3125,9.020000457763672,-0.9100000262260436,-3.75,9.029999732971191,-0.8600000143051147,-3.7100000381469727,45223079
1749119623105561450,0.375,1.75,0.4375,9.010000228881836,-0.8799999952316284,-3.740000009536743,9.029999732971191,-0.8600000143051147,-3.7100000381469727,45223105
1749119623121797621,0.4375,1.8125,0.4375,8.979999542236328,-0.9200000166893004,-3.759999990463257,9.029999732971191,-0.8700000047683716,-3.700000047683716,45223121
1749119623127089920,0.5625,1.875,0.625,9.050000190734863,-0.8899999856948853,-3.680000066757202,9.029999732971191,-0.8700000047683716,-3.700000047683716,45223127
1749119623146208216,0.875,1.6875,0.75,9.039999961853027,-0.8799999952316284,-3.690000057220459,9.039999961853027,-0.8700000047683716,-3.690000057220459,45223146
1749119623171391034,1.375,1.3125,1.125,9.020000457763672,-0.8899999856948853,-3.7200000286102295,9.039999961853027,-0.8700000047683716,-3.690000057220459,45223171
1749119623188390871,2.6875,1.125,1.375,9.020000457763672,-0.949999988079071,-3.7300000190734863,9.039999961853027,-0.8799999952316284,-3.680000066757202,45223188
1749119623214090723,3.375,0.9375,1.25,9.06999969482422,-0.949999988079071,-3.7300000190734863,9.039999961853027,-0.8899999856948853,-3.680000066757202,45223214
1749119623234801026,3.1875,1.375,1.3125,9.029999732971191,-0.9900000095367432,-3.690000057220459,9.039999961853027,-0.8999999761581421,-3.680000066757202,45223234
1749119623251015919,4.375,1.25,1.0625,8.979999542236328,-1.0099999904632568,-3.680000066757202,9.039999961853027,-0.9100000262260436,-3.670000076293945,45223251
1749119623271839948,4.25,1.25,0.4375,9.020000457763672,-1.0,-3.670000076293945,9.039999961853027,-0.9100000262260436,-3.670000076293945,45223271
1749119623296703277,4.5,1.3125,0.125,9.020000457763672,-1.0399999618530271,-3.660000085830689,9.039999961853027,-0.9200000166893004,-3.660000085830689,45223296
1749119623312406166,6.3125,0.6875,-0.375,9.010000228881836,-1.0099999904632568,-3.7100000381469727,9.039999961853027,-0.9300000071525574,-3.660000085830689,45223312
1749119623327072255,9.3125,0.1875,-0.75,8.920000076293945,-0.449999988079071,-3.609999895095825,9.039999961853027,-0.9399999976158142,-3.650000095367432,45223327
1749119623352858218,9.5,0.6875,-0.125,9.289999961853027,-0.7599999904632568,-3.549999952316284,9.050000190734863,-0.949999988079071,-3.650000095367432,45223352
1749119623372127979,6.25,2.125,-1.375,8.930000305175781,-0.6200000047683716,-3.690000057220459,9.050000190734863,-0.959999978542328,-3.640000104904175,45223372
1749119623391290102,8.6875,1.0625,-1.875,9.050000190734863,-1.5700000524520874,-3.75,9.050000190734863,-0.959999978542328,-3.640000104904175,45223391
1749119623413879498,11.25,0.1875,-1.0,8.84000015258789,-1.1699999570846558,-3.7200000286102295,9.050000190734863,-0.9700000286102296,-3.630000114440918,45223413
1749119623426967125,9.125,1.875,-2.125,8.949999809265137,-1.25,-4.03000020980835,9.050000190734863,-0.9800000190734864,-3.619999885559082,45223426
1749119623449644181,10.8125,2.625,-3.1875,9.06999969482422,-1.0299999713897705,-3.740000009536743,9.0600004196167,-0.9800000190734864,-3.609999895095825,45223449
1749119623470401760,10.875,3.8125,-4.3125,8.859999656677246,-1.4500000476837158,-3.880000114440918,9.0600004196167,-0.9900000095367432,-3.5999999046325684,45223470
1749119623498058668,16.3125,4.6875,-6.0,9.300000190734863,-0.8700000047683716,-3.829999923706055,9.0600004196167,-1.0,-3.5899999141693115,45223498
1749119623516169604,13.75,6.5625,-6.0,9.15999984741211,-1.090000033378601,-3.640000104904175,9.079999923706056,-0.9900000095367432,-3.549999952316284,45223516
1749119623526971348,15.5625,7.625,-6.375,9.09000015258789,-1.0399999618530271,-3.5299999713897705,9.079999923706056,-0.9900000095367432,-3.539999961853028,45223526
1749119623552111344,16.3125,7.9375,-6.4375,8.989999771118164,-0.4199999868869781,-3.440000057220459,9.100000381469728,-0.9900000095367432,-3.490000009536743,45223552
1749119623576912759,17.0625,7.9375,-6.4375,8.9399995803833,-1.8600000143051147,-3.619999885559082,9.109999656677246,-0.9900000095367432,-3.4600000381469727,45223576
1749119623601378726,14.9375,7.5,-4.5,9.220000267028809,-0.6200000047683716,-3.4800000190734863,9.119999885559082,-1.0,-3.450000047683716,45223601
1749119623627968992,10.9375,8.4375,-4.5,9.109999656677246,-1.190000057220459,-3.4800000190734863,9.140000343322754,-0.9900000095367432,-3.400000095367432,45223627
1749119623651862806,8.3125,9.125,-4.5625,9.25,-0.8299999833106995,-3.390000104904175,9.140000343322754,-0.9900000095367432,-3.390000104904175,45223651
1749119623664818800,5.6875,9.75,-4.0,9.34000015258789,-0.8899999856948853,-3.470000028610229,9.149999618530272,-0.9800000190734864,-3.3499999046325684,45223664
1749119623674633233,4.625,10.5625,-3.375,9.279999732971191,-0.9100000262260436,-3.440000057220459,9.170000076293944,-0.9800000190734864,-3.319999933242798,45223674
1749119623691180692,2.1875,11.75,-3.0,9.25,-0.9100000262260436,-3.3299999237060547,9.18000030517578,-0.9700000286102296,-3.289999961853028,45223691
1749119623714328802,0.1875,12.4375,-2.8125,9.15999984741211,-0.949999988079071,-3.289999961853028,9.199999809265137,-0.959999978542328,-3.25,45223714
1749119623730921380,-2.4375,12.875,-3.1875,9.1899995803833,-1.0099999904632568,-3.220000028610229,9.210000038146973,-0.949999988079071,-3.2100000381469727,45223730
1749119623752895068,-5.5,13.3125,-3.8125,9.100000381469728,-1.1699999570846558,-3.200000047683716,9.229999542236328,-0.9300000071525574,-3.1700000762939453,45223752
1749119623777996884,-6.6875,13.4375,-5.375,9.149999618530272,-1.159999966621399,-3.140000104904175,9.239999771118164,-0.9100000262260436,-3.130000114440918,45223777
1749119623787065745,-7.3125,13.3125,-7.375,9.1899995803833,-1.190000057220459,-3.049999952316284,9.260000228881836,-0.8899999856948853,-3.0899999141693115,45223787
1749119623810891014,-7.8125,12.875,-9.1875,9.300000190734863,-0.9100000262260436,-2.970000028610229,9.270000457763672,-0.8600000143051147,-3.049999952316284,45223810
1749119623827212238,-9.1875,12.5625,-10.4375,9.3100004196167,-0.9100000262260436,-2.9800000190734863,9.289999961853027,-0.8100000023841858,-3.009999990463257,45223827
1749119623852051973,-11.125,12.8125,-11.25,9.34000015258789,-0.949999988079071,-3.039999961853028,9.3100004196167,-0.75,-2.9600000381469727,45223852
1749119623871378137,-13.75,13.75,-12.0625,9.279999732971191,-0.9300000071525574,-3.180000066757202,9.31999969482422,-0.7200000286102295,-2.940000057220459,45223871
1749119623887017550,-15.125,15.625,-14.25,9.25,-0.8399999737739563,-3.119999885559082,9.34000015258789,-0.6700000166893005,-2.900000095367432,45223887
1749119623912966579,-18.125,17.4375,-17.1875,9.369999885559082,-0.7900000214576721,-2.930000066757202,9.359999656677246,-0.6100000143051147,-2.8499999046325684,45223912
1749119623927404583,-20.5625,18.8125,-21.0625,9.4399995803833,-0.800000011920929,-2.859999895095825,9.380000114440918,-0.5299999713897705,-2.799999952316284,45223927
1749119623949916597,-22.875,19.5,-24.9375,9.460000038146973,-0.8199999928474426,-2.740000009536743,9.399999618530272,-0.4399999976158142,-2.740000009536743,45223949
1749119623971185435,-24.6875,19.75,-29.0,9.609999656677246,-0.6399999856948853,-2.7699999809265137,9.420000076293944,-0.3300000131130218,-2.680000066757202,45223971
1749119624016141670,-26.25,19.3125,-35.0,9.550000190734863,-0.7599999904632568,-2.690000057220459,9.4399995803833,-0.209999993443489,-2.630000114440918,45224016
1749119624026026991,-26.75,15.3125,-41.5,9.880000114440918,-1.0700000524520874,-2.180000066757202,9.460000038146973,0.0099999997764825,-2.549999952316284,45224026
1749119624034851069,-21.75,12.5,-48.0,9.93000030517578,-0.75,-2.140000104904175,9.470000267028809,0.1000000014901161,-2.5299999713897705,45224034
1749119624052425346,-13.4375,9.8125,-53.0,9.949999809265137,-0.1099999994039535,-2.240000009536743,9.470000267028809,0.3700000047683716,-2.4800000190734863,45224052
1749119624084002565,-10.5625,6.875,-51.875,10.140000343322754,0.7599999904632568,-2.490000009536743,9.470000267028809,0.5400000214576721,-2.4600000381469727,45224084
1749119624088327937,-11.6875,5.75,-47.375,10.43000030517578,1.190000057220459,-1.690000057220459,9.470000267028809,0.6200000047683716,-2.450000047683716,45224088
1749119624111972034,-13.4375,4.625,-42.5625,9.6899995803833,1.1799999475479126,-2.5199999809265137,9.460000038146973,0.8399999737739563,-2.4200000762939453,45224111
1749119624127060945,-10.125,2.4375,-38.75,9.619999885559082,1.0299999713897705,-2.809999942779541,9.449999809265137,0.9100000262260436,-2.4200000762939453,45224127
1749119624154150950,-0.625,0.0,-34.3125,9.5,1.870000004768372,-2.109999895095825,9.4399995803833,1.0700000524520874,-2.4100000858306885,45224154
1749119624173795000,3.3125,2.25,-28.0625,8.960000038146973,1.8799999952316284,-2.319999933242798,9.43000030517578,1.159999966621399,-2.400000095367432,45224173
1749119624195248273,5.375,4.625,-24.5,8.960000038146973,1.8799999952316284,-2.319999933242798,9.43000030517578,1.159999966621399,-2.400000095367432,45224195
1749119624212240743,15.8125,12.5,-17.875,8.59000015258789,1.8899999856948853,-2.5999999046325684,9.43000030517578,1.25,-2.3399999141693115,45224212
1749119624237165712,21.3125,16.8125,-16.125,8.59000015258789,1.830000042915344,-2.509999990463257,9.4399995803833,1.2699999809265137,-2.319999933242798,45224237
1749119624257843560,18.75,18.4375,-15.1875,8.720000267028809,2.109999895095825,-2.490000009536743,9.449999809265137,1.3200000524520874,-2.25,45224257
1749119624274181254,20.375,16.625,-12.875,9.18000030517578,1.1799999475479126,-2.150000095367432,9.449999809265137,1.340000033378601,-2.2100000381469727,45224274
1749119624290230704,30.5,15.6875,-12.875,9.359999656677246,1.4299999475479126,-1.9900000095367432,9.460000038146973,1.350000023841858,-2.190000057220459,45224290
1749119624310338869,29.625,15.625,-10.125,9.15999984741211,0.2300000041723251,-2.369999885559082,9.470000267028809,1.3700000047683716,-2.130000114440918,45224310
1749119624337251679,33.125,12.6875,-6.5,9.220000267028809,0.2899999916553497,-2.319999933242798,9.470000267028809,1.3700000047683716,-2.119999885559082,45224337
1749119624351954208,32.4375,9.875,-2.3125,9.18000030517578,0.0199999995529651,-2.369999885559082,9.479999542236328,1.340000033378601,-2.0999999046325684,45224351
1749119624372177265,33.375,6.25,2.5625,9.380000114440918,-0.1199999973177909,-2.559999942779541,9.479999542236328,1.309999942779541,-2.0999999046325684,45224372
1749119624393089442,34.375,2.375,7.125,9.4399995803833,-0.1800000071525573,-2.549999952316284,9.489999771118164,1.2799999713897705,-2.0999999046325684,45224393
1749119624417772477,35.375,-1.1875,11.3125,9.40999984741211,0.0,-2.3299999237060547,9.489999771118164,1.190000057220459,-2.130000114440918,45224417
1749119624430771923,34.3125,-3.75,15.25,9.5,0.0199999995529651,-2.380000114440918,9.5,1.1200000047683716,-2.150000095367432,45224430
1749119624450728984,30.375,-5.4375,20.1875,9.609999656677246,-0.0399999991059303,-2.309999942779541,9.5,0.9800000190734864,-2.190000057220459,45224450
1749119624476497109,26.375,-6.125,24.125,9.68000030517578,-0.0599999986588954,-2.3299999237060547,9.510000228881836,0.7699999809265137,-2.2300000190734863,45224476
1749119624489969960,23.8125,-7.1875,27.4375,9.710000038146973,-0.1899999976158142,-2.259999990463257,9.510000228881836,0.699999988079071,-2.25,45224489
1749119624516196471,22.875,-7.375,30.0625,9.779999732971191,0.0199999995529651,-2.140000104904175,9.520000457763672,0.4900000095367431,-2.289999961853028,45224516
1749119624543170067,20.0625,-5.9375,31.8125,9.75,-0.2000000029802322,-2.059999942779541,9.520000457763672,0.4199999868869781,-2.289999961853028,45224543
1749119624552883042,19.125,-4.625,33.5,9.8100004196167,-0.0900000035762786,-1.950000047683716,9.520000457763672,0.2800000011920929,-2.299999952316284,45224552
1749119624571910480,15.9375,-3.0625,35.4375,9.760000228881836,-0.1099999994039535,-1.950000047683716,9.529999732971191,0.0799999982118606,-2.299999952316284,45224571
1749119624592113703,11.5,-2.0625,37.4375,9.829999923706056,-0.25,-1.940000057220459,9.529999732971191,0.0099999997764825,-2.299999952316284,45224592
1749119624615187293,8.375,-1.75,39.8125,9.869999885559082,-0.2199999988079071,-2.2100000381469727,9.520000457763672,-0.1800000071525573,-2.299999952316284,45224615
1749119624636077576,14.3125,-2.0,40.0,9.890000343322754,0.1899999976158142,-2.059999942779541,9.520000457763672,-0.25,-2.309999942779541,45224636
1749119624652340659,14.3125,-2.375,38.875,9.850000381469728,-0.1700000017881393,-2.4200000762939453,9.510000228881836,-0.4600000083446502,-2.319999933242798,45224652
1749119624673762267,15.25,-3.6875,38.375,9.859999656677246,-0.2599999904632568,-2.2799999713897705,9.5,-0.5899999737739563,-2.3299999237060547,45224673
1749119624690114015,14.625,-3.6875,38.125,9.699999809265137,-0.550000011920929,-2.3499999046325684,9.5,-0.6600000262260437,-2.3299999237060547,45224690
1749119624713106722,15.8125,-4.0625,38.125,9.460000038146973,-0.6899999976158142,-2.5199999809265137,9.479999542236328,-0.8600000143051147,-2.3399999141693115,45224713
1749119624736199380,19.5625,-5.3125,38.0625,9.579999923706056,-0.6800000071525574,-2.5199999809265137,9.470000267028809,-0.9300000071525574,-2.3499999046325684,45224736
1749119624751263972,23.125,-5.875,38.0625,9.5600004196167,-0.4199999868869781,-2.559999942779541,9.449999809265137,-1.0700000524520874,-2.359999895095825,45224751
1749119624777119284,27.125,-6.3125,38.1875,9.25,-0.209999993443489,-2.7100000381469727,9.420000076293944,-1.2699999809265137,-2.380000114440918,45224777
1749119624790367323,25.9375,-7.125,37.625,9.270000457763672,-0.5799999833106995,-2.6600000858306885,9.40999984741211,-1.340000033378601,-2.390000104904175,45224790
1749119624811265830,26.1875,-7.1875,38.8125,9.34000015258789,-0.5299999713897705,-2.380000114440918,9.369999885559082,-1.559999942779541,-2.400000095367432,45224811
1749119624836996690,23.9375,-6.5625,40.125,9.289999961853027,-0.4600000083446502,-2.440000057220459,9.359999656677246,-1.6299999952316284,-2.4100000858306885,45224836
1749119624861378418,20.3125,-7.125,40.1875,9.15999984741211,0.2000000029802322,-2.390000104904175,9.3100004196167,-1.850000023841858,-2.4200000762939453,45224861
1749119624872019955,15.375,-8.125,38.8125,9.220000267028809,0.0700000002980232,-2.369999885559082,9.279999732971191,-1.9800000190734863,-2.440000057220459,45224872
1749119624893248044,8.4375,-8.3125,37.0625,9.170000076293944,0.2000000029802322,-2.220000028610229,9.270000457763672,-2.039999961853028,-2.450000047683716,45224893
1749119624936901207,2.1875,-7.9375,33.8125,9.210000038146973,0.2800000011920929,-2.2100000381469727,9.220000267028809,-2.200000047683716,-2.4800000190734863,45224936
1749119624990079655,-1.0,-6.875,28.1875,9.199999809265137,0.4000000059604645,-2.2699999809265137,9.229999542236328,-2.1700000762939453,-2.490000009536743,45224990
1749119625015199380,2.6875,-6.0,18.0,9.18000030517578,0.3400000035762787,-2.2699999809265137,9.239999771118164,-2.0899999141693115,-2.509999990463257,45225015
1749119625040001687,9.25,-4.875,4.5625,9.1899995803833,0.9800000190734864,-2.240000009536743,9.25,-2.049999952316284,-2.5199999809265137,45225040
1749119625050071303,9.6875,-4.0625,-8.1875,9.15999984741211,1.2699999809265137,-2.2300000190734863,9.25,-2.039999961853028,-2.5199999809265137,45225050
1749119625056999198,1.25,-2.3125,-16.5625,9.25,-0.699999988079071,-1.9900000095367432,9.260000228881836,-1.9700000286102293,-2.5299999713897705,45225056
1749119625068382919,0.125,-3.4375,-14.1875,9.140000343322754,-1.2899999618530271,-2.380000114440918,9.260000228881836,-1.950000047683716,-2.539999961853028,45225068
1749119625076135242,-11.0,-8.1875,-2.5625,8.5600004196167,-5.809999942779541,-3.819999933242798,9.25,-1.9299999475479128,-2.5899999141693115,45225076
1749119625089033842,6.625,-18.1875,17.4375,9.3100004196167,-0.5,-3.130000114440918,9.229999542236328,-1.9900000095367432,-2.640000104904175,45225089
1749119625101027932,2.875,-10.5,7.375,9.859999656677246,-0.7599999904632568,-2.9800000190734863,9.220000267028809,-2.0,-2.650000095367432,45225101
1749119625113777636,3.9375,-9.5,10.75,10.1899995803833,-1.340000033378601,-2.539999961853028,9.199999809265137,-2.049999952316284,-2.700000047683716,45225113
1749119625142241248,-9.375,-8.75,11.8125,10.140000343322754,-2.690000057220459,-1.940000057220459,9.1899995803833,-2.059999942779541,-2.7100000381469727,45225142
1749119625159844331,-1.75,-10.75,8.5,10.100000381469728,-2.289999961853028,-2.25,9.15999984741211,-2.0999999046325684,-2.759999990463257,45225159
1749119625174184647,0.125,-11.6875,2.75,9.550000190734863,-2.900000095367432,-2.470000028610229,9.149999618530272,-2.0999999046325684,-2.799999952316284,45225174
1749119625190972022,5.5,-12.3125,-2.5625,9.369999885559082,-2.809999942779541,-2.6600000858306885,9.149999618530272,-2.0999999046325684,-2.819999933242798,45225190
1749119625217034740,5.75,-12.5625,-8.375,9.06999969482422,-2.650000095367432,-3.039999961853028,9.140000343322754,-2.069999933242798,-2.869999885559082,45225217
1749119625228224067,1.8125,-11.9375,-11.5,8.880000114440918,-2.5999999046325684,-3.0799999237060547,9.140000343322754,-2.059999942779541,-2.890000104904175,45225228
1749119625260199813,0.4375,-11.8125,-12.3125,8.75,-2.25,-3.289999961853028,9.130000114440918,-2.0,-2.940000057220459,45225260
1749119625271754440,-3.25,-12.25,-13.5625,8.90999984741211,-2.4100000858306885,-3.309999942779541,9.130000114440918,-1.950000047683716,-2.9800000190734863,45225271
1749119625302110476,-3.5625,-11.9375,-13.6875,8.930000305175781,-2.319999933242798,-3.2699999809265137,9.130000114440918,-1.9299999475479128,-3.0,45225302
1749119625312021968,-3.8125,-11.5,-13.6875,9.199999809265137,-1.950000047683716,-3.059999942779541,9.119999885559082,-1.8600000143051147,-3.059999942779541,45225312
1749119625327229024,-3.1875,-11.5,-12.8125,9.3100004196167,-2.0,-3.009999990463257,9.119999885559082,-1.840000033378601,-3.0799999237060547,45225327
1749119625353009955,-0.6875,-11.6875,-11.3125,9.350000381469728,-1.7899999618530271,-3.140000104904175,9.109999656677246,-1.7799999713897705,-3.130000114440918,45225353
1749119625377195450,0.3125,-11.1875,-9.625,9.18000030517578,-1.6799999475479126,-3.220000028610229,9.109999656677246,-1.7599999904632568,-3.1700000762939453,45225377
1749119625391098503,-2.0625,-10.75,-7.5,9.079999923706056,-1.7100000381469729,-3.2100000381469727,9.100000381469728,-1.7400000095367432,-3.190000057220459,45225391
1749119625411140067,-3.9375,-10.3125,-6.0625,9.039999961853027,-1.850000023841858,-3.299999952316284,9.09000015258789,-1.7100000381469729,-3.240000009536743,45225411
1749119625426859756,-3.875,-9.9375,-6.0625,9.039999961853027,-1.8799999952316284,-3.319999933242798,9.09000015258789,-1.7000000476837158,-3.25,45225426
1749119625451788902,-3.75,-9.625,-6.6875,8.9399995803833,-1.7899999618530271,-3.3499999046325684,9.079999923706056,-1.6799999475479126,-3.289999961853028,45225451
1749119625496064950,-5.0,-9.5625,-8.0625,8.9399995803833,-1.909999966621399,-3.390000104904175,9.06999969482422,-1.6299999952316284,-3.3399999141693115,45225496
1749119625510805162,-5.6875,-9.25,-9.5,8.930000305175781,-1.950000047683716,-3.390000104904175,9.0600004196167,-1.6200000047683716,-3.3499999046325684,45225510
1749119625529084168,-5.4375,-9.375,-11.25,9.020000457763672,-1.7699999809265137,-3.430000066757202,9.0600004196167,-1.5700000524520874,-3.400000095367432,45225529
1749119625542221599,-4.3125,-9.8125,-12.6875,9.06999969482422,-1.7300000190734863,-3.380000114440918,9.050000190734863,-1.5499999523162842,-3.4200000762939453,45225542
1749119625552005506,-3.8125,-9.75,-13.3125,9.050000190734863,-1.4700000286102295,-3.490000009536743,9.050000190734863,-1.5,-3.450000047683716,45225552
1749119625573129486,-3.75,-9.5625,-14.25,9.09000015258789,-1.2899999618530271,-3.5799999237060547,9.039999961853027,-1.4299999475479126,-3.5,45225573
1749119625594263799,-2.9375,-8.5,-14.8125,9.149999618530272,-1.3300000429153442,-3.609999895095825,9.039999961853027,-1.409999966621399,-3.509999990463257,45225594
1749119625610734426,-3.625,-7.5625,-14.4375,9.050000190734863,-1.340000033378601,-3.5299999713897705,9.039999961853027,-1.3300000429153442,-3.549999952316284,45225610
1749119625637045079,-4.0625,-7.5,-13.9375,9.06999969482422,-1.2300000190734863,-3.5,9.039999961853027,-1.309999942779541,-3.559999942779541,45225637
1749119625651144771,-3.0,-7.875,-13.625,9.020000457763672,-1.2400000095367432,-3.5,9.029999732971191,-1.2599999904632568,-3.5799999237060547,45225651
1749119625671913579,-1.5625,-8.5,-12.75,8.960000038146973,-1.2100000381469729,-3.650000095367432,9.029999732971191,-1.2000000476837158,-3.619999885559082,45225671
1749119625700240777,-1.125,-9.1875,-12.25,8.989999771118164,-1.2200000286102295,-3.680000066757202,9.020000457763672,-1.1799999475479126,-3.640000104904175,45225700
1749119625710230121,-0.25,-9.25,-11.75,8.979999542236328,-1.1399999856948853,-3.7899999618530273,9.010000228881836,-1.1299999952316284,-3.680000066757202,45225710
1749119625727916929,-0.375,-8.6875,-11.4375,8.979999542236328,-1.090000033378601,-3.7799999713897705,9.010000228881836,-1.1100000143051147,-3.690000057220459,45225727
1749119625753093487,-0.125,-8.25,-11.0,9.020000457763672,-1.190000057220459,-3.7799999713897705,9.0,-1.0800000429153442,-3.7200000286102295,45225753
1749119625770952982,-0.1875,-8.125,-10.8125,8.979999542236328,-1.0499999523162842,-3.680000066757202,8.989999771118164,-1.0299999713897705,-3.759999990463257,45225770
1749119625797967818,0.25,-8.0,-11.25,9.0,-1.0199999809265137,-3.690000057220459,8.989999771118164,-1.0099999904632568,-3.7699999809265137,45225797
1749119625812629332,1.4375,-8.375,-11.6875,9.010000228881836,-0.8700000047683716,-3.859999895095825,8.979999542236328,-0.959999978542328,-3.809999942779541,45225812
1749119625826111378,2.3125,-8.25,-11.75,8.989999771118164,-0.9700000286102296,-3.910000085830689,8.979999542236328,-0.9399999976158142,-3.819999933242798,45225826
1749119625852034983,1.25,-7.625,-11.25,8.869999885559082,-0.9100000262260436,-3.9700000286102295,8.970000267028809,-0.9100000262260436,-3.839999914169312,45225852
1749119625875101170,-0.9375,-6.5625,-10.6875,8.880000114440918,-0.8500000238418579,-3.9700000286102295,8.960000038146973,-0.8600000143051147,-3.869999885559082,45225875
1749119625900043175,-2.375,-5.25,-10.4375,8.949999809265137,-0.8299999833106995,-3.930000066757202,8.960000038146973,-0.8399999737739563,-3.880000114440918,45225900
1749119625911041524,-2.375,-5.0,-9.875,8.960000038146973,-0.75,-3.950000047683716,8.949999809265137,-0.7900000214576721,-3.900000095367432,45225911
1749119625936076485,-3.0625,-4.625,-8.8125,8.960000038146973,-0.6800000071525574,-3.9800000190734863,8.949999809265137,-0.7799999713897705,-3.910000085830689,45225936
1749119625954881018,-5.625,-3.6875,-7.375,8.949999809265137,-0.6800000071525574,-4.03000020980835,8.949999809265137,-0.75,-3.930000066757202,45225954
1749119625971195732,-9.5625,-1.5,-6.375,9.079999923706056,-0.4799999892711639,-4.070000171661377,8.949999809265137,-0.699999988079071,-3.940000057220459,45225971
1749119625996090117,-12.75,0.8125,-4.6875,9.0600004196167,-0.6600000262260437,-4.070000171661377,8.949999809265137,-0.6800000071525574,-3.940000057220459,45225996
1749119626015998486,-16.125,2.9375,-2.9375,9.130000114440918,-0.6100000143051147,-3.930000066757202,8.949999809265137,-0.6399999856948853,-3.930000066757202,45226015
1749119626039060669,-18.4375,4.5,-1.3125,9.079999923706056,-0.5699999928474426,-3.920000076293945,8.960000038146973,-0.6200000047683716,-3.930000066757202,45226039
1749119626047057190,-18.0625,5.625,-0.5,9.06999969482422,-0.3199999928474426,-3.9700000286102295,8.970000267028809,-0.6000000238418579,-3.910000085830689,45226047
1749119626071174738,-21.1875,7.4375,0.0625,8.770000457763672,-0.5400000214576721,-4.25,8.979999542236328,-0.5600000023841858,-3.890000104904175,45226071
1749119626099084742,-20.4375,7.4375,0.125,8.920000076293945,-0.5400000214576721,-4.119999885559082,8.979999542236328,-0.5400000214576721,-3.880000114440918,45226099
1749119626122290496,-20.125,7.5,0.0625,9.079999923706056,-0.5699999928474426,-3.619999885559082,9.0,-0.5,-3.849999904632568,45226122
1749119626131000306,-19.4375,7.9375,-0.1875,9.039999961853027,-0.6200000047683716,-3.680000066757202,9.0,-0.4900000095367431,-3.839999914169312,45226131
1749119626158236057,-13.4375,5.375,-1.875,8.979999542236328,-0.4399999976158142,-3.759999990463257,9.010000228881836,-0.449999988079071,-3.819999933242798,45226158
1749119626184869036,-11.125,4.5,-2.625,8.880000114440918,-0.4699999988079071,-3.950000047683716,9.020000457763672,-0.4300000071525574,-3.799999952316284,45226184
1749119626233043053,-9.1875,3.9375,-2.8125,8.90999984741211,-0.4399999976158142,-3.9800000190734863,9.020000457763672,-0.4199999868869781,-3.799999952316284,45226233
1749119626246096005,-6.4375,3.875,-3.1875,8.979999542236328,-0.3899999856948852,-3.829999923706055,9.029999732971191,-0.3899999856948852,-3.7799999713897705,45226246
1749119626251895687,-5.8125,3.75,-3.4375,8.970000267028809,-0.4399999976158142,-3.640000104904175,9.029999732971191,-0.3799999952316284,-3.7799999713897705,45226251
1749119626271157555,-4.125,3.875,-3.3125,9.050000190734863,-0.3499999940395355,-3.7799999713897705,9.039999961853027,-0.3700000047683716,-3.7699999809265137,45226271
1749119626275023009,-2.125,3.625,-3.5625,9.109999656677246,-0.3000000119209289,-3.759999990463257,9.050000190734863,-0.3499999940395355,-3.75,45226275
1749119626289048830,-1.875,3.5,-3.375,9.050000190734863,-0.3300000131130218,-3.869999885559082,9.050000190734863,-0.3400000035762787,-3.740000009536743,45226289
1749119626312340381,-1.25,4.1875,-3.1875,9.140000343322754,-0.3400000035762787,-3.7799999713897705,9.0600004196167,-0.3199999928474426,-3.7300000190734863,45226312
1749119626330332863,-1.25,5.0625,-3.125,9.100000381469728,-0.3799999952316284,-3.7799999713897705,9.0600004196167,-0.3199999928474426,-3.7200000286102295,45226330
1749119626354086739,-1.5625,5.375,-3.25,8.979999542236328,-0.4699999988079071,-3.7899999618530273,9.06999969482422,-0.3100000023841858,-3.700000047683716,45226354
1749119626380255465,-1.4375,5.4375,-4.6875,9.029999732971191,-0.4799999892711639,-3.680000066757202,9.079999923706056,-0.2899999916553497,-3.680000066757202,45226380
1749119626389890514,-1.375,5.4375,-4.9375,9.0,-0.4699999988079071,-3.660000085830689,9.079999923706056,-0.2800000011920929,-3.670000076293945,45226389
1749119626412040392,-0.4375,5.1875,-6.8125,9.109999656677246,-0.2599999904632568,-3.5899999141693115,9.09000015258789,-0.25,-3.650000095367432,45226412
1749119626437832826,-0.75,5.0625,-6.9375,9.100000381469728,-0.3499999940395355,-3.5799999237060547,9.100000381469728,-0.2399999946355819,-3.640000104904175,45226437
1749119626451457557,-1.3125,4.5625,-7.25,9.079999923706056,-0.2800000011920929,-3.5,9.100000381469728,-0.2199999988079071,-3.619999885559082,45226451
1749119626471156491,-0.6875,3.5625,-7.8125,9.119999885559082,-0.209999993443489,-3.5,9.109999656677246,-0.1800000071525573,-3.609999895095825,45226471
1749119626497144734,-1.0,3.0625,-7.5625,9.09000015258789,-0.2800000011920929,-3.5199999809265137,9.109999656677246,-0.1700000017881393,-3.5999999046325684,45226497
1749119626514969637,-1.0625,1.9375,-6.9375,9.130000114440918,-0.1500000059604644,-3.549999952316284,9.119999885559082,-0.1299999952316284,-3.5899999141693115,45226514
1749119626530836966,-1.0625,1.625,-7.0625,9.09000015258789,-0.1299999952316284,-3.559999942779541,9.119999885559082,-0.1199999973177909,-3.5899999141693115,45226530
1749119626555020308,-1.6875,1.1875,-6.875,9.170000076293944,-0.1599999964237213,-3.549999952316284,9.119999885559082,-0.1000000014901161,-3.5799999237060547,45226555
1749119626575836203,-2.875,1.25,-7.9375,9.130000114440918,-0.1199999973177909,-3.619999885559082,9.119999885559082,-0.0599999986588954,-3.5799999237060547,45226575
1749119626589791061,-3.375,1.5625,-8.625,9.119999885559082,-0.2399999946355819,-3.5999999046325684,9.119999885559082,-0.0399999991059303,-3.5799999237060547,45226589
1749119626614945901,-3.875,2.1875,-10.9375,9.09000015258789,-0.1899999976158142,-3.609999895095825,9.130000114440918,0.0,-3.569999933242798,45226614
1749119626631229285,-4.125,2.1875,-11.8125,9.100000381469728,-0.2000000029802322,-3.650000095367432,9.130000114440918,0.0199999995529651,-3.559999942779541,45226631
1749119626655768759,-3.5,2.6875,-13.6875,9.149999618530272,-0.0799999982118606,-3.670000076293945,9.130000114440918,0.0599999986588954,-3.559999942779541,45226655
1749119626681863452,-4.375,4.3125,-16.25,9.149999618530272,-0.0900000035762786,-3.569999933242798,9.140000343322754,0.1299999952316284,-3.539999961853028,45226681
1749119626687146191,-4.75,4.75,-17.125,9.050000190734863,0.3199999928474426,-3.5199999809265137,9.140000343322754,0.1599999964237213,-3.5299999713897705,45226687
1749119626713186501,-3.1875,6.8125,-20.3125,9.289999961853027,0.209999993443489,-3.740000009536743,9.149999618530272,0.25,-3.509999990463257,45226713
1749119626729865728,-3.4375,7.625,-21.1875,9.279999732971191,0.4900000095367431,-3.650000095367432,9.149999618530272,0.2899999916553497,-3.5,45226729
1749119626751025456,-5.5625,9.0625,-21.9375,9.039999961853027,-0.0299999993294477,-3.5999999046325684,9.15999984741211,0.3600000143051147,-3.470000028610229,45226751
1749119626776177569,-2.375,9.5,-23.3125,9.289999961853027,0.4900000095367431,-3.380000114440918,9.170000076293944,0.4600000083446502,-3.430000066757202,45226776
1749119626789990792,-2.75,9.5,-23.3125,9.270000457763672,0.7400000095367432,-3.390000104904175,9.170000076293944,0.5,-3.4200000762939453,45226789
1749119626811997225,-5.8125,9.6875,-24.6875,9.15999984741211,0.2399999946355819,-3.4600000381469727,9.18000030517578,0.6200000047683716,-3.369999885559082,45226811
1749119626837224429,-5.5625,9.375,-25.8125,9.170000076293944,0.2300000041723251,-3.440000057220459,9.18000030517578,0.6600000262260437,-3.359999895095825,45226837
1749119626854001703,-3.8125,9.1875,-30.1875,9.3100004196167,0.4300000071525574,-3.3299999237060547,9.1899995803833,0.800000011920929,-3.309999942779541,45226854
1749119626872019962,-3.0,9.4375,-32.75,9.40999984741211,0.6299999952316284,-3.3299999237060547,9.1899995803833,0.8999999761581421,-3.2799999713897705,45226872
1749119626885831128,-3.625,9.75,-33.875,9.369999885559082,0.3899999856948852,-3.390000104904175,9.1899995803833,0.959999978542328,-3.2699999809265137,45226885
1749119626911750070,-4.75,11.0,-37.0625,9.300000190734863,0.5199999809265137,-3.369999885559082,9.1899995803833,1.1200000047683716,-3.220000028610229,45226911
1749119626927408847,-4.25,11.3125,-37.6875,9.43000030517578,0.9100000262260436,-3.299999952316284,9.1899995803833,1.1799999475479126,-3.200000047683716,45226927
1749119626953225719,-6.25,11.9375,-39.5,9.489999771118164,0.9800000190734864,-3.289999961853028,9.18000030517578,1.3700000047683716,-3.140000104904175,45226953
1749119626975127143,-8.375,11.5625,-39.0625,9.449999809265137,1.2899999618530271,-3.119999885559082,9.170000076293944,1.5,-3.0999999046325684,45226975
1749119626987114376,-9.4375,11.5,-38.75,9.369999885559082,1.350000023841858,-3.069999933242798,9.170000076293944,1.5700000524520874,-3.0799999237060547,45226987
1749119627012019485,-10.375,11.125,-37.3125,9.5,1.399999976158142,-2.8399999141693115,9.15999984741211,1.7599999904632568,-3.0199999809265137,45227012
1749119627026879279,-10.8125,10.8125,-36.75,9.460000038146973,1.3799999952316284,-2.869999885559082,9.149999618530272,1.8200000524520876,-3.0,45227026
1749119627053006508,-10.0625,9.75,-36.1875,9.460000038146973,1.8200000524520876,-2.8399999141693115,9.130000114440918,2.0,-2.940000057220459,45227053
1749119627078000459,-9.375,9.1875,-35.1875,9.369999885559082,1.830000042915344,-2.880000114440918,9.119999885559082,2.109999895095825,-2.900000095367432,45227078
1749119627103039533,-9.5,9.0,-34.75,9.3100004196167,2.130000114440918,-2.8299999237060547,9.109999656677246,2.1700000762939453,-2.890000104904175,45227103
1749119627111832911,-8.875,8.25,-34.0625,9.279999732971191,2.2699999809265137,-2.819999933242798,9.079999923706056,2.3499999046325684,-2.8399999141693115,45227111
1749119627134792067,-9.75,8.0,-33.9375,9.210000038146973,2.299999952316284,-2.819999933242798,9.06999969482422,2.400000095367432,-2.819999933242798,45227134
1749119627152094122,-9.375,7.0,-34.25,9.239999771118164,2.450000047683716,-2.640000104904175,9.039999961853027,2.569999933242798,-2.7699999809265137,45227152
1749119627175834973,-9.4375,6.5625,-35.125,9.149999618530272,2.5299999713897705,-2.5899999141693115,9.020000457763672,2.690000057220459,-2.740000009536743,45227175
1749119627188145732,-9.4375,6.25,-35.75,9.199999809265137,2.490000009536743,-2.549999952316284,9.0,2.75,-2.7300000190734863,45227188
1749119627211939415,-8.4375,5.625,-38.125,9.06999969482422,2.8299999237060547,-2.549999952316284,8.960000038146973,2.930000066757202,-2.690000057220459,45227211
1749119627237790585,-8.625,5.4375,-38.9375,9.15999984741211,2.6600000858306885,-2.6600000858306885,8.9399995803833,2.990000009536743,-2.680000066757202,45227237
1749119627255829751,-9.125,4.625,-42.625,8.960000038146973,2.7699999809265137,-2.569999933242798,8.880000114440918,3.190000057220459,-2.640000104904175,45227255
1749119627276822186,-9.625,3.5625,-43.75,9.359999656677246,3.0199999809265137,-2.440000057220459,8.84000015258789,3.309999942779541,-2.619999885559082,45227276
1749119627295308333,-11.75,3.375,-45.4375,9.380000114440918,2.6700000762939453,-2.4800000190734863,8.829999923706055,3.369999885559082,-2.5999999046325684,45227295
1749119627336005626,-14.8125,1.125,-51.0,9.670000076293944,2.8399999141693115,-2.380000114440918,8.739999771118164,3.609999895095825,-2.569999933242798,45227336
1749119627345829159,-16.875,0.0625,-53.375,9.850000381469728,2.6600000858306885,-2.319999933242798,8.710000038146973,3.690000057220459,-2.559999942779541,45227345
1749119627362371026,-21.75,-3.8125,-62.375,10.300000190734863,2.650000095367432,-2.299999952316284,8.59000015258789,3.9800000190734863,-2.5299999713897705,45227362
1749119627371307604,-24.5625,-7.3125,-68.8125,10.609999656677246,2.700000047683716,-2.3499999046325684,8.489999771118164,4.190000057220459,-2.5199999809265137,45227371
1749119627405125968,-26.625,-9.5,-72.375,10.75,2.880000114440918,-2.259999990463257,8.4399995803833,4.309999942779541,-2.509999990463257,45227405
1749119627416174149,-30.1875,-17.3125,-79.5625,10.56999969482422,3.359999895095825,-2.2100000381469727,8.239999771118164,4.679999828338623,-2.5,45227416
1749119627428932355,-26.5625,-20.0625,-81.375,10.479999542236328,4.25,-2.25,8.170000076293945,4.800000190734863,-2.509999990463257,45227428
1749119627452008965,-19.0,-17.75,-83.25,9.65999984741211,4.940000057220459,-2.1700000762939453,7.929999828338623,5.170000076293945,-2.539999961853028,45227452
1749119627520976403,-19.1875,-8.9375,-80.1875,8.920000076293945,5.289999961853027,-2.180000066757202,7.78000020980835,5.400000095367432,-2.539999961853028,45227520
1749119627544966829,-20.875,-3.9375,-78.5,8.369999885559082,5.329999923706055,-2.5,7.699999809265137,5.510000228881836,-2.5199999809265137,45227544
1749119627569826527,-0.3125,8.0625,-78.5,6.199999809265137,5.690000057220459,-4.340000152587891,7.480000019073486,5.820000171661377,-2.4800000190734863,45227569
1749119627595900997,7.5,8.9375,-78.0625,5.269999980926514,6.53000020980835,-5.21999979019165,7.409999847412109,5.920000076293945,-2.470000028610229,45227595
1749119627608878580,10.125,7.1875,-68.875,4.760000228881836,6.239999771118164,-5.03000020980835,7.190000057220459,6.170000076293945,-2.490000009536743,45227608
1749119627610725891,-3.6875,10.1875,-34.875,4.150000095367432,1.899999976158142,-4.130000114440918,7.099999904632568,6.28000020980835,-2.4600000381469727,45227610
1749119627613671412,-19.4375,10.875,-14.375,4.309999942779541,1.0299999713897705,-4.03000020980835,7.090000152587891,6.309999942779541,-2.4200000762939453,45227613
1749119627630982747,-48.1875,17.3125,40.8125,6.210000038146973,1.75,-1.5099999904632568,7.190000057220459,6.269999980926514,-2.240000009536743,45227630
1749119627642060776,-60.0,27.0625,60.75,6.309999942779541,1.7799999713897705,-1.149999976158142,7.260000228881836,6.21999979019165,-2.150000095367432,45227642
1749119627651084710,-58.8125,29.6875,106.875,5.800000190734863,0.5299999713897705,-1.1299999952316284,7.579999923706055,5.940000057220459,-1.8200000524520876,45227651
1749119627671214178,-20.75,22.6875,125.0,6.809999942779541,0.2399999946355819,-1.5099999904632568,7.829999923706055,5.639999866485596,-1.7000000476837158,45227671
1749119627687008757,-0.6875,19.375,130.8125,7.25,0.0099999997764825,-1.7599999904632568,7.960000038146973,5.460000038146973,-1.6699999570846558,45227687
1749119627715033499,60.125,6.5625,141.5,9.380000114440918,0.6000000238418579,-1.950000047683716,8.329999923706055,4.860000133514404,-1.7300000190734863,45227715
1749119627730934128,74.25,3.6875,141.875,9.920000076293944,1.2300000190734863,-1.8200000524520876,8.449999809265137,4.639999866485596,-1.7899999618530271,45227730
1749119627752211810,89.125,6.8125,139.0,11.520000457763672,2.059999942779541,-3.140000104904175,8.760000228881836,3.940000057220459,-1.950000047683716,45227752
1749119627776199516,95.3125,7.5625,134.75,11.609999656677246,2.359999895095825,-3.190000057220459,8.930000305175781,3.470000028610229,-2.039999961853028,45227776
1749119627787155324,95.75,6.8125,131.5625,11.609999656677246,2.4800000190734863,-3.1600000858306885,9.010000228881836,3.240000009536743,-2.0899999141693115,45227787
1749119627821036727,93.4375,5.25,125.0625,11.710000038146973,2.3299999237060547,-3.220000028610229,9.199999809265137,2.549999952316284,-2.200000047683716,45227821
1749119627825923446,88.375,5.875,124.6875,11.40999984741211,1.7999999523162842,-3.299999952316284,9.260000228881836,2.319999933242798,-2.2300000190734863,45227825
1749119627852108969,65.9375,4.375,126.25,11.119999885559082,2.359999895095825,-3.140000104904175,9.390000343322754,1.6399999856948853,-2.2799999713897705,45227852
1749119627871077569,42.0625,2.875,131.125,11.4399995803833,3.200000047683716,-2.9100000858306885,9.449999809265137,1.190000057220459,-2.289999961853028,45227871
1749119627895927859,32.5,3.1875,131.875,11.420000076293944,3.4600000381469727,-2.819999933242798,9.479999542236328,0.9700000286102296,-2.299999952316284,45227895
1749119627919028403,10.9375,-4.5625,133.6875,10.550000190734863,2.0199999809265137,-2.380000114440918,9.520000457763672,0.3100000023841858,-2.309999942779541,45227919
1749119627928184191,4.875,-8.8125,135.375,10.729999542236328,1.9900000095367432,-2.119999885559082,9.520000457763672,0.0900000035762786,-2.319999933242798,45227928
1749119627951000198,-8.375,-15.125,134.625,10.550000190734863,1.5800000429153442,-2.2799999713897705,9.489999771118164,-0.550000011920929,-2.380000114440918,45227951
1749119627977460515,-8.0,-15.875,128.875,10.270000457763672,1.409999966621399,-1.940000057220459,9.4399995803833,-0.959999978542328,-2.440000057220459,45227977
1749119627994321792,-6.625,-16.625,124.875,10.380000114440918,1.340000033378601,-1.899999976158142,9.40999984741211,-1.159999966621399,-2.4600000381469727,45227994
1749119628011095711,3.125,-13.75,110.75,9.960000038146973,1.0099999904632568,-1.7799999713897705,9.3100004196167,-1.7100000381469729,-2.5299999713897705,45228011
1749119628034056013,9.8125,-13.375,104.25,9.989999771118164,1.0800000429153442,-1.6799999475479126,9.270000457763672,-1.8799999952316284,-2.549999952316284,45228034
1749119628051747074,27.625,-9.625,84.5,10.020000457763672,1.2899999618530271,-1.559999942779541,9.15999984741211,-2.3299999237060547,-2.5799999237060547,45228051
1749119628074024027,38.1875,-7.3125,69.5,9.609999656677246,1.8799999952316284,-1.5800000429153442,9.09000015258789,-2.5899999141693115,-2.5799999237060547,45228074
1749119628087086923,40.5,-6.875,61.75,9.739999771118164,1.7000000476837158,-1.6100000143051147,9.0600004196167,-2.700000047683716,-2.569999933242798,45228087
1749119628111103248,43.0,-2.8125,38.0,9.550000190734863,1.649999976158142,-1.7899999618530271,8.989999771118164,-2.970000028610229,-2.5199999809265137,45228111
1749119628125928803,42.9375,-2.3125,30.3125,9.43000030517578,1.919999957084656,-1.649999976158142,8.979999542236328,-3.0299999713897705,-2.509999990463257,45228125
1749119628151532753,29.9375,-2.125,6.0,9.100000381469728,2.0899999141693115,-2.7100000381469727,8.949999809265137,-3.140000104904175,-2.4600000381469727,45228151
1749119628177114484,14.5,-3.5625,-12.4375,9.149999618530272,2.970000028610229,-2.690000057220459,8.960000038146973,-3.130000114440918,-2.450000047683716,45228177
1749119628187030717,4.8125,-2.375,-22.5625,9.029999732971191,3.1700000762939453,-3.049999952316284,8.970000267028809,-3.0999999046325684,-2.450000047683716,45228187
1749119628214023260,-59.375,-1.1875,-19.0625,8.289999961853027,-8.210000038146973,-3.369999885559082,9.010000228881836,-2.930000066757202,-2.509999990463257,45228214
1749119628232068925,-53.8125,-6.625,2.375,8.09000015258789,-8.239999771118164,-3.7100000381469727,9.0,-2.9100000858306885,-2.549999952316284,45228232
1749119628254301653,-41.5625,-6.625,-2.5,9.93000030517578,-2.509999990463257,-2.890000104904175,8.979999542236328,-2.880000114440918,-2.650000095367432,45228254
1749119628272794144,-30.8125,-5.4375,-6.4375,9.18000030517578,-4.179999828338623,-3.2100000381469727,8.989999771118164,-2.8299999237060547,-2.700000047683716,45228272
1749119628298995182,-22.125,-12.5625,-7.5,9.220000267028809,-3.5799999237060547,-3.5,8.979999542236328,-2.809999942779541,-2.7300000190734863,45228298
1749119628311240346,12.8125,-18.8125,-25.5625,10.0600004196167,-3.2100000381469727,-2.650000095367432,8.989999771118164,-2.720000028610229,-2.809999942779541,45228311
1749119628333933080,16.4375,-20.5,-30.0,10.5,-2.359999895095825,-2.400000095367432,8.989999771118164,-2.680000066757202,-2.8299999237060547,45228333
1749119628358993367,5.8125,-17.8125,-32.75,9.529999732971191,-2.549999952316284,-2.900000095367432,9.010000228881836,-2.549999952316284,-2.900000095367432,45228358
1749119628383908109,10.5,-18.5625,-34.8125,9.390000343322754,-2.359999895095825,-3.069999933242798,9.020000457763672,-2.450000047683716,-2.950000047683716,45228383
1749119628408988106,11.0,-18.8125,-35.0625,9.279999732971191,-1.7599999904632568,-3.109999895095825,9.020000457763672,-2.400000095367432,-2.9800000190734863,45228408
1749119628435161071,-3.5,-17.0,-31.75,9.229999542236328,-1.5399999618530271,-3.359999895095825,9.029999732971191,-2.259999990463257,-3.049999952316284,45228435
1749119628460012383,-7.0,-15.625,-30.625,9.15999984741211,-1.6799999475479126,-3.369999885559082,9.039999961853027,-2.2100000381469727,-3.0799999237060547,45228460
1749119628480002510,-8.3125,-12.4375,-29.125,9.020000457763672,-1.840000033378601,-3.3399999141693115,9.050000190734863,-2.059999942779541,-3.150000095367432,45228480
1749119628488888743,-7.375,-12.0,-28.5,9.0,-2.0299999713897705,-3.299999952316284,9.050000190734863,-1.9600000381469729,-3.190000057220459,45228488
1749119628510173242,-5.4375,-12.25,-28.875,8.920000076293945,-2.009999990463257,-3.240000009536743,9.0600004196167,-1.909999966621399,-3.2100000381469727,45228510
1749119628513700460,-2.1875,-14.0,-29.4375,8.850000381469727,-2.039999961853028,-3.200000047683716,9.0600004196167,-1.7799999713897705,-3.2799999713897705,45228513
1749119628532067063,0.125,-15.0625,-29.8125,8.90999984741211,-2.0199999809265137,-3.2300000190734863,9.0600004196167,-1.7400000095367432,-3.299999952316284,45228532
1749119628558392992,2.4375,-17.0,-29.4375,8.850000381469727,-1.440000057220459,-3.319999933242798,9.0600004196167,-1.6100000143051147,-3.369999885559082,45228558
1749119628570708224,-1.3125,-16.75,-27.8125,8.989999771118164,-1.5099999904632568,-3.509999990463257,9.050000190734863,-1.5199999809265137,-3.4200000762939453,45228570
1749119628586969077,-2.5625,-16.75,-26.8125,9.119999885559082,-1.5,-3.5999999046325684,9.050000190734863,-1.4800000190734863,-3.450000047683716,45228586
1749119628611045773,-5.9375,-14.25,-22.9375,9.5,-0.8500000238418579,-3.7300000190734863,9.039999961853027,-1.3600000143051147,-3.5299999713897705,45228611
1749119628627757280,-8.0,-12.4375,-20.625,9.479999542236328,-1.1100000143051147,-3.920000076293945,9.039999961853027,-1.3200000524520874,-3.549999952316284,45228627
1749119628650867274,-14.75,-6.125,-16.6875,9.260000228881836,-1.0299999713897705,-4.050000190734863,9.039999961853027,-1.2200000286102295,-3.5899999141693115,45228650
1749119628678062647,-20.375,-0.9375,-17.1875,9.199999809265137,-1.5800000429153442,-3.75,9.039999961853027,-1.1399999856948853,-3.609999895095825,45228678
1749119628702188103,-21.125,0.125,-18.0,8.920000076293945,-1.1799999475479126,-3.890000104904175,9.039999961853027,-1.100000023841858,-3.609999895095825,45228702
1749119628714375313,-27.8125,5.3125,-21.875,8.949999809265137,-1.0099999904632568,-3.680000066757202,9.0600004196167,-0.959999978542328,-3.609999895095825,45228714
1749119628729207589,-32.1875,7.875,-22.6875,9.039999961853027,-0.9800000190734864,-3.2799999713897705,9.06999969482422,-0.9100000262260436,-3.5999999046325684,45228729
1749119628764175848,-30.25,7.1875,-26.8125,9.010000228881836,-1.25,-3.4800000190734863,9.09000015258789,-0.7300000190734863,-3.5799999237060547,45228764
1749119628787688499,-21.25,5.0625,-30.0,8.890000343322754,-0.6600000262260437,-3.380000114440918,9.109999656677246,-0.6100000143051147,-3.569999933242798,45228787
1749119628795267288,-19.75,4.5625,-30.0625,8.890000343322754,-0.5899999737739563,-3.4600000381469727,9.109999656677246,-0.5600000023841858,-3.559999942779541,45228795
1749119628815866986,-17.625,4.0625,-26.875,9.1899995803833,-0.2300000041723251,-3.4600000381469727,9.130000114440918,-0.3899999856948852,-3.549999952316284,45228815
1749119628832014601,-16.3125,3.6875,-25.6875,9.220000267028809,-0.1099999994039535,-3.5799999237060547,9.130000114440918,-0.3400000035762787,-3.539999961853028,45228832
1749119628855758601,-15.5625,3.0625,-22.9375,9.270000457763672,0.0299999993294477,-3.299999952316284,9.140000343322754,-0.2000000029802322,-3.5299999713897705,45228855
1749119628875025884,-13.3125,1.4375,-22.3125,9.18000030517578,-0.1299999952316284,-3.509999990463257,9.140000343322754,-0.1199999973177909,-3.5199999809265137,45228875
1749119628901918254,-12.0625,0.875,-22.375,9.1899995803833,-0.0599999986588954,-3.4600000381469727,9.149999618530272,-0.0799999982118606,-3.5199999809265137,45228901
1749119628911135610,-11.625,0.375,-22.0625,9.260000228881836,0.0700000002980232,-3.5,9.149999618530272,0.0399999991059303,-3.5199999809265137,45228911
1749119628927921134,-11.9375,0.0625,-22.1875,9.270000457763672,-0.0799999982118606,-3.5,9.149999618530272,0.0799999982118606,-3.5199999809265137,45228927
1749119628949899801,-10.25,0.0625,-22.875,9.1899995803833,0.3199999928474426,-3.670000076293945,9.140000343322754,0.209999993443489,-3.5199999809265137,45228949
1749119628974965768,-12.0625,0.125,-23.375,9.170000076293944,0.1000000014901161,-3.630000114440918,9.140000343322754,0.2899999916553497,-3.5199999809265137,45228974
1749119628990193775,-12.5625,0.5,-23.9375,9.25,0.1400000005960464,-3.569999933242798,9.140000343322754,0.3300000131130218,-3.5199999809265137,45228990
1749119629014136872,-12.4375,0.5625,-25.875,9.18000030517578,0.3499999940395355,-3.4600000381469727,9.140000343322754,0.4699999988079071,-3.509999990463257,45229014
1749119629040138246,-12.875,0.6875,-26.0625,9.239999771118164,0.6000000238418579,-3.4200000762939453,9.130000114440918,0.5199999809265137,-3.509999990463257,45229040
1749119629057398327,-12.875,1.375,-27.125,9.0600004196167,0.6299999952316284,-3.5299999713897705,9.130000114440918,0.6600000262260437,-3.5,45229057
1749119629100256009,-14.125,1.25,-27.125,9.0600004196167,0.800000011920929,-3.609999895095825,9.119999885559082,0.7699999809265137,-3.490000009536743,45229100
1749119629103336502,-15.125,1.4375,-27.1875,9.09000015258789,0.7099999785423279,-3.619999885559082,9.119999885559082,0.8199999928474426,-3.490000009536743,45229103
1749119629116075538,-17.375,2.0625,-27.4375,9.220000267028809,0.949999988079071,-3.490000009536743,9.109999656677246,0.9700000286102296,-3.4800000190734863,45229116
1749119629136013061,-17.8125,2.0,-27.625,9.1899995803833,0.75,-3.470000028610229,9.109999656677246,1.0199999809265137,-3.470000028610229,45229136
1749119629156103724,-19.1875,1.875,-28.375,9.199999809265137,0.9300000071525574,-3.5199999809265137,9.100000381469728,1.1299999952316284,-3.4600000381469727,45229156
1749119629171948134,-20.8125,3.8125,-31.8125,9.369999885559082,1.190000057220459,-3.829999923706055,9.09000015258789,1.2999999523162842,-3.430000066757202,45229171
1749119629196131732,-20.8125,4.0625,-32.6875,9.390000343322754,1.1799999475479126,-3.7799999713897705,9.079999923706056,1.3600000143051147,-3.4200000762939453,45229196
1749119629212092418,-24.0625,8.0,-38.0625,9.4399995803833,1.149999976158142,-3.7899999618530273,9.06999969482422,1.5399999618530271,-3.390000104904175,45229212
1749119629237234813,-24.0625,8.75,-40.625,9.539999961853027,1.2400000095367432,-3.640000104904175,9.0600004196167,1.6100000143051147,-3.369999885559082,45229237
1749119629252754198,-23.8125,11.1875,-50.75,10.06999969482422,1.1200000047683716,-3.4100000858306885,9.039999961853027,1.8600000143051147,-3.299999952316284,45229252
1749119629274175938,-22.625,11.8125,-57.1875,10.0,1.2200000286102295,-2.8399999141693115,9.010000228881836,2.049999952316284,-3.25,45229274
1749119629300849128,-21.6875,12.5,-60.1875,10.010000228881836,1.6200000047683716,-3.009999990463257,9.0,2.1600000858306885,-3.2300000190734863,45229300
1749119629311987759,-19.75,12.0625,-67.6875,10.020000457763672,1.5800000429153442,-3.2300000190734863,8.9399995803833,2.490000009536743,-3.150000095367432,45229311
1749119629327155822,-19.5,12.0625,-69.5,10.220000267028809,1.8600000143051147,-3.299999952316284,8.920000076293945,2.5999999046325684,-3.119999885559082,45229327
1749119629350997838,-16.75,10.8125,-77.3125,10.31999969482422,1.590000033378601,-3.289999961853028,8.84000015258789,2.930000066757202,-3.039999961853028,45229350
1749119629376127287,-15.125,9.5625,-84.125,10.81999969482422,1.25,-3.0199999809265137,8.770000457763672,3.190000057220459,-3.0,45229376
1749119629389946967,-14.125,9.0625,-88.375,11.279999732971191,1.4900000095367432,-2.809999942779541,8.720000267028809,3.3299999237060547,-2.970000028610229,45229389
1749119629414975165,-19.25,4.125,-99.8125,11.479999542236328,1.870000004768372,-2.5,8.5600004196167,3.7799999713897705,-2.9100000858306885,45229414
1749119629427267455,-24.375,2.5625,-102.625,11.640000343322754,1.899999976158142,-2.430000066757202,8.489999771118164,3.940000057220459,-2.890000104904175,45229427
1749119629452150122,-56.625,-2.75,-109.625,12.630000114440918,0.4199999868869781,-2.609999895095825,8.260000228881836,4.460000038146973,-2.799999952316284,45229452
1749119629475204575,-68.5,-5.5,-118.4375,12.5600004196167,0.5099999904632568,-2.289999961853028,8.079999923706055,4.840000152587891,-2.7100000381469727,45229475
1749119629490207351,-69.5,-5.75,-123.4375,12.170000076293944,1.840000033378601,-2.2699999809265137,7.96999979019165,5.039999961853027,-2.6600000858306885,45229490
1749119629516214867,-60.0625,-9.3125,-134.5,11.210000038146973,3.380000114440918,-2.6600000858306885,7.599999904632568,5.639999866485596,-2.5199999809265137,45229516
1749119629528973795,-52.0,-7.4375,-136.5625,10.369999885559082,3.849999904632568,-2.440000057220459,7.46999979019165,5.840000152587891,-2.4800000190734863,45229528
1749119629551744355,-16.9375,8.125,-135.3125,7.800000190734863,5.360000133514404,-3.5899999141693115,7.050000190734863,6.369999885559082,-2.390000104904175,45229551
1749119629578169004,1.125,17.3125,-133.4375,6.25,4.829999923706055,-4.760000228881836,6.769999980926514,6.690000057220459,-2.3399999141693115,45229578
1749119629589169273,13.875,17.5,-128.0,4.869999885559082,6.119999885559082,-4.5,6.630000114440918,6.829999923706055,-2.3299999237060547,45229589
1749119629611997856,23.5625,23.375,-92.6875,1.649999976158142,3.220000028610229,-3.4200000762939453,6.269999980926514,7.150000095367432,-2.359999895095825,45229611
1749119629655801417,7.4375,29.4375,-65.875,2.759999990463257,1.9800000190734863,-3.680000066757202,6.210000038146973,7.210000038146973,-2.3399999141693115,45229655
1749119629662328494,-8.625,31.5625,12.0625,4.139999866485596,0.5699999928474426,-1.7000000476837158,6.190000057220459,7.260000228881836,-2.240000009536743,45229662
1749119629672002538,-14.625,41.375,49.375,3.430000066757202,0.6899999976158142,-1.8899999856948853,6.320000171661377,7.179999828338623,-2.119999885559082,45229672
1749119629697072193,-20.5625,43.875,68.75,3.5899999141693115,0.6800000071525574,-1.919999957084656,6.420000076293945,7.110000133514404,-2.049999952316284,45229697
1749119629714973924,-12.1875,35.625,116.625,5.730000019073486,1.7899999618530271,-1.7899999618530271,6.820000171661377,6.789999961853027,-1.8600000143051147,45229714
